"Time (s)","Gyroscope x (rad/s)","Gyroscope y (rad/s)","Gyroscope z (rad/s)","Absolute (rad/s)"
6.990791662e-3,-2.263461351e-1,-5.215650201e-1,1.299257576e-1,5.832180943e-1
1.702379167e-2,-2.314777821e-1,-6.205560565e-1,1.471409649e-1,6.784705199e-1
2.705679167e-2,-2.562682629e-1,-7.161570787e-1,1.616249830e-1,7.776098116e-1
3.708979167e-2,-3.041545451e-1,-8.110619783e-1,1.840266883e-1,8.855491754e-1
4.712279166e-2,-3.504089713e-1,-8.791763186e-1,2.245847881e-1,9.727156694e-1
5.715579166e-2,-3.432407975e-1,-9.321303368e-1,3.083422780e-1,1.040075079e0
6.718879167e-2,-3.525694013e-1,-9.589958191e-1,3.442731500e-1,1.078193937e0
7.722179167e-2,-4.057340920e-1,-9.910176992e-1,3.482050300e-1,1.126047502e0
8.725479167e-2,-4.537332952e-1,-1.118080378e0,3.266489804e-1,1.250070874e0
9.728779166e-2,-4.560401440e-1,-1.095751643e0,4.556303918e-1,1.271315590e0
1.073207917e-1,-5.243910551e-1,-1.101485729e0,5.529273152e-1,1.339397404e0
1.173537917e-1,-6.890905499e-1,-1.131025076e0,3.999039531e-1,1.383469074e0
1.273867917e-1,-9.770703316e-1,-8.938578367e-1,2.817034125e-1,1.353885179e0
1.374207917e-1,-1.355779052e0,-5.912519097e-1,1.758310497e-1,1.489507374e0
1.474537917e-1,-1.752569556e0,-3.109771907e-1,1.090225726e-1,1.783281465e0
1.574867917e-1,-1.767752528e0,-8.435869962e-2,2.142728269e-1,1.782688485e0
1.675197917e-1,-1.447263956e0,-9.734043479e-2,3.514429331e-1,1.492501341e0
1.775527917e-1,-1.052412033e0,-1.270994097e-1,4.549435079e-1,1.153559250e0
1.875857917e-1,-6.607097983e-1,-1.396065056e-1,4.503833652e-1,8.117096708e-1
1.976187917e-1,-3.152988255e-1,-2.915760577e-1,2.887750268e-1,5.175142151e-1
2.076517917e-1,-6.108971313e-2,-4.879903197e-1,4.312318936e-2,4.936862512e-1
2.176847917e-1,1.251656413e-1,-5.840241909e-1,-1.386857629e-1,6.131756960e-1
2.277177917e-1,2.857708633e-1,-5.850298405e-1,-1.622298360e-1,6.710018034e-1
2.377507917e-1,4.472769201e-1,-3.883775175e-1,-3.580451012e-2,5.934439335e-1
2.477837917e-1,5.456239581e-1,-6.711838394e-2,1.073918864e-1,5.601280196e-1
2.578167917e-1,5.370685458e-1,1.801052541e-1,2.299814522e-1,6.113689506e-1
2.678507917e-1,4.032477736e-1,3.468632698e-1,2.947456539e-1,6.081101014e-1
2.778837917e-1,1.521188766e-1,3.644039035e-1,3.180701733e-1,5.070493000e-1
2.879167917e-1,-1.868610382e-1,2.283329517e-1,3.007949591e-1,4.213437929e-1
2.979497917e-1,-5.300047994e-1,7.980873436e-2,2.769919038e-1,6.033233264e-1
3.079827917e-1,-8.028479218e-1,-8.376304060e-2,2.580948174e-1,8.474632543e-1
3.180157917e-1,-9.456058741e-1,-2.955253720e-1,2.344132215e-1,1.018064474e0
3.280487917e-1,-9.299635291e-1,-5.723057985e-1,2.232683301e-1,1.114546921e0
3.380817917e-1,-8.069849014e-1,-8.846535683e-1,2.299920022e-1,1.219316566e0
3.481147917e-1,-6.270608902e-1,-8.021969199e-1,2.027767301e-1,1.038192497e0
3.581477917e-1,-4.323747456e-1,-4.067326486e-1,1.896824986e-1,6.231844176e-1
3.681807917e-1,-3.382375240e-1,1.022484750e-1,2.522916794e-1,4.341779183e-1
3.782137917e-1,-3.958390355e-1,2.173910439e-1,3.303936720e-1,5.595599936e-1
3.882467917e-1,-5.458610654e-1,1.315587163e-1,3.457747102e-1,6.594180379e-1
3.982807917e-1,-6.608787179e-1,2.677136064e-1,2.146654129e-1,7.446559570e-1
4.083137917e-1,-5.145904422e-1,5.783725977e-1,-4.506647214e-2,7.754670669e-1
4.183467917e-1,-9.260752052e-2,4.478446543e-1,-2.353666425e-1,5.143330085e-1
4.283797917e-1,5.055813193e-1,-1.146051362e-1,-3.323540688e-1,6.157970727e-1
4.384127917e-1,8.855310082e-1,-4.224905372e-1,-4.141735733e-1,1.064989751e0
4.484457917e-1,1.068721175e0,-6.151466966e-1,-5.061061382e-1,1.332934294e0
4.584787917e-1,1.107275248e0,-5.569249392e-1,-5.884377360e-1,1.372036017e0
4.685117917e-1,8.263481259e-1,-9.484059364e-2,-4.609674513e-1,9.509663268e-1
4.785447917e-1,6.179536581e-1,2.874042690e-1,-2.726936936e-1,7.340502625e-1
4.885777917e-1,4.901730716e-1,6.746038198e-1,-3.913235292e-2,8.348001527e-1
4.986107917e-1,4.239261448e-1,9.092088938e-1,1.580747217e-1,1.015559849e0
5.086437917e-1,3.378663659e-1,1.015719533e0,2.876122296e-1,1.108404550e0
5.186777917e-1,1.683002412e-1,1.064536333e0,3.270592391e-1,1.126290514e0
5.287107917e-1,-3.895804659e-2,7.491656542e-1,3.087727129e-1,8.112382480e-1
5.387437917e-1,-2.489632219e-1,1.692498624e-1,2.197413594e-1,3.727123110e-1
5.487767917e-1,-5.316331983e-1,-5.771660805e-1,4.332341254e-2,7.858953238e-1
5.588097917e-1,-1.013907909e0,-1.858633399e0,-2.092830092e-1,2.127516566e0
5.688427917e-1,-1.535581350e0,-2.840494156e0,-4.143451452e-1,3.255472167e0
5.788757917e-1,-1.944120288e0,-3.347958326e0,-5.318601131e-1,3.907851562e0
5.889087917e-1,-2.133144617e0,-3.458433867e0,-6.390454769e-1,4.113325891e0
5.989417917e-1,-2.161216736e0,-3.173729420e0,-7.432720065e-1,3.910993414e0
6.089747917e-1,-2.078738451e0,-2.433334827e0,-7.820920944e-1,3.294531829e0
6.190077917e-1,-1.862594247e0,-1.519568801e0,-7.293631434e-1,2.512034487e0
6.290407917e-1,-1.544605732e0,-7.054226995e-1,-5.504705906e-1,1.785061882e0
6.390737917e-1,-1.160373926e0,-2.876594895e-3,-2.487139702e-1,1.186732726e0
6.491067917e-1,-7.483446598e-1,5.854935050e-1,1.067062467e-1,9.561425612e-1
6.591407917e-1,-2.896358967e-1,1.066312551e0,4.052498043e-1,1.176919205e0
6.691737917e-1,1.790819615e-1,1.439496160e0,6.408084035e-1,1.585829421e0
6.792067917e-1,5.987899899e-1,1.761201143e0,8.742035627e-1,2.055385800e0
6.892397917e-1,7.256311178e-1,1.413645029e0,1.007162571e0,1.881305194e0
6.992727917e-1,7.716531754e-1,1.158413529e0,9.253366590e-1,1.671412116e0
7.093057917e-1,7.907054424e-1,1.234403610e0,7.747070789e-1,1.658052601e0
7.193387917e-1,7.111414075e-1,1.214128971e0,6.220333576e-1,1.538426715e0
7.293717917e-1,5.338627696e-1,9.721962810e-1,4.533982873e-1,1.198225802e0
7.394047917e-1,2.904296219e-1,4.705768228e-1,2.560298145e-1,6.093793378e-1
7.494377917e-1,1.367117763e-1,-2.597568035e-1,8.149541914e-2,3.046394756e-1
7.594707917e-1,8.648933470e-2,-7.725793719e-1,-1.173999067e-2,7.774941275e-1
7.695037917e-1,6.603093445e-2,-7.787464857e-1,4.096050188e-2,7.826135292e-1
7.795367917e-1,6.565756351e-2,-5.628674626e-1,1.299236566e-1,5.813870077e-1
7.895707917e-1,1.202558130e-1,-3.373419046e-1,1.879393756e-1,4.044530011e-1
7.996037917e-1,2.038987726e-1,-1.224524975e-1,2.216126472e-1,3.250868945e-1
8.096367917e-1,2.802392840e-1,-1.591969281e-2,1.957220882e-1,3.421909244e-1
8.196697917e-1,3.071460128e-1,4.104585201e-2,1.277475655e-1,3.351758876e-1
8.297027917e-1,2.690945864e-1,6.416215003e-2,5.351837352e-2,2.817674470e-1
8.397357917e-1,1.614474803e-1,3.275708854e-2,5.065887235e-3,1.648149840e-1
8.497687917e-1,-2.512208000e-2,-1.882312261e-2,6.689557806e-3,3.209640216e-2
8.598017917e-1,-2.500374913e-1,3.870205255e-3,4.455571249e-2,2.540057816e-1
8.698347917e-1,-4.733864665e-1,1.015457138e-2,7.567135245e-2,4.795039265e-1
8.798677917e-1,-6.628105044e-1,-2.293467149e-2,1.311058402e-1,6.760417926e-1
8.899007917e-1,-7.982165217e-1,-7.197642326e-2,2.480518818e-1,8.389636209e-1
8.999337917e-1,-8.718982339e-1,-7.080915570e-2,4.609297812e-1,9.887753688e-1
9.099667917e-1,-8.775450587e-1,-1.419701725e-1,6.754468679e-1,1.116453909e0
9.199997917e-1,-7.995365858e-1,-2.254637331e-1,7.928807735e-1,1.148369526e0
9.300337917e-1,-6.303517222e-1,-2.402284741e-1,7.664566040e-1,1.021033172e0
9.400667917e-1,-3.598698676e-1,-1.549506038e-1,6.181544662e-1,7.318681269e-1
9.500997917e-1,-3.385438770e-2,2.786977217e-2,4.478653371e-1,4.500068933e-1
9.601327917e-1,3.327981830e-1,1.969093978e-1,3.025920093e-1,4.910090281e-1
9.701657917e-1,7.020758986e-1,2.515493929e-1,1.870501190e-1,7.688793219e-1
9.801987917e-1,1.042682528e0,2.020843774e-1,9.309564531e-2,1.066157470e0
9.902317917e-1,1.320976019e0,5.894963443e-2,1.175253280e-2,1.322342930e0
1.000264792e0,1.496751904e0,-1.107011810e-1,-6.945550442e-2,1.502446366e0
1.010297792e0,1.538948298e0,-2.369912863e-1,-1.773887575e-1,1.567160969e0
1.020330792e0,1.499783278e0,-3.426785469e-1,-3.782278597e-1,1.584245808e0
1.030363792e0,1.370542049e0,-2.903003693e-1,-5.829783678e-1,1.517406864e0
1.040396792e0,1.164823532e0,-1.000217572e-1,-7.628778815e-1,1.395994583e0
1.050429792e0,8.678918481e-1,1.584376842e-1,-8.707461953e-1,1.239571578e0
1.060462792e0,5.215115547e-1,4.419407845e-1,-8.692481518e-1,1.105838283e0
1.070495792e0,1.828646809e-1,6.345023513e-1,-7.463068962e-1,9.964972196e-1
1.080529792e0,-1.074007004e-1,6.583059430e-1,-5.525038838e-1,8.661190257e-1
1.090562792e0,-3.460083902e-1,5.625324249e-1,-3.393450975e-1,7.425090103e-1
1.100595792e0,-5.343996286e-1,5.081745982e-1,-1.167349219e-1,7.466266988e-1
1.110628792e0,-6.495957971e-1,5.220814347e-1,1.000370085e-1,8.393754387e-1
1.120661792e0,-6.948128343e-1,5.317327380e-1,3.026582897e-1,9.258005291e-1
1.130694792e0,-6.975374222e-1,1.348004490e-1,3.214170039e-1,7.797682391e-1
1.140727792e0,-6.242703795e-1,-4.106122851e-1,-5.388471112e-2,7.491458587e-1
1.150760792e0,-4.490102232e-1,-7.589387298e-1,-5.136359930e-1,1.020499931e0
1.160793792e0,-2.461886704e-1,-7.404276133e-1,-7.561338544e-1,1.086545129e0
1.170826792e0,-3.103658929e-2,-1.908967495e-1,-5.623996854e-1,5.947253525e-1
1.180859792e0,1.631528586e-1,3.681310639e-2,-2.222740352e-1,2.781722610e-1
1.190892792e0,3.030993044e-1,-4.744173586e-2,3.207079694e-2,3.084614120e-1
1.200925792e0,3.442494273e-1,-1.361321807e-1,1.429001093e-1,3.968123991e-1
1.210958792e0,3.140225112e-1,-1.489393562e-1,9.430202097e-2,3.601193421e-1
1.220991792e0,2.529008090e-1,-7.441505790e-2,-7.952729613e-2,2.753561528e-1
1.231025792e0,1.782539487e-1,5.377145484e-2,-2.955826819e-1,3.493350275e-1
1.241058792e0,9.413401037e-2,2.118383199e-1,-4.365949333e-1,4.943195540e-1
1.251091792e0,-2.510237508e-3,3.443943858e-1,-4.509354234e-1,5.674121521e-1
1.261124792e0,-1.160911322e-1,3.626785874e-1,-3.675995469e-1,5.292847397e-1
1.271157792e0,-2.342656255e-1,2.897306681e-1,-2.454486191e-1,4.461717919e-1
1.281190792e0,-3.533454239e-1,2.397780269e-1,-9.146251529e-2,4.367057162e-1
1.291223792e0,-4.849573076e-1,5.613435805e-2,5.547743291e-2,4.913373606e-1
1.301256792e0,-6.217170358e-1,-1.200204343e-1,1.230551451e-1,6.450422823e-1
1.311289792e0,-7.248703837e-1,-3.501356021e-2,9.501797706e-2,7.319094470e-1
1.321322792e0,-7.982985377e-1,1.704698205e-1,1.711811684e-2,8.164762979e-1
1.331355792e0,-8.585056067e-1,3.116063476e-1,-6.413844973e-2,9.155567340e-1
1.341388792e0,-9.034422040e-1,3.172762096e-1,-1.260103285e-1,9.657901491e-1
1.351421792e0,-9.207025766e-1,3.443984389e-1,-1.356347650e-1,9.923206684e-1
1.361454792e0,-8.984955549e-1,3.983285129e-1,-1.008778587e-1,9.879960571e-1
1.371487792e0,-8.323403001e-1,4.991494417e-1,-3.731252253e-2,9.712531929e-1
1.381521792e0,-7.514563799e-1,5.914769769e-1,3.737369925e-2,9.570415343e-1
1.391554792e0,-6.637415290e-1,5.511272550e-1,7.458725572e-2,8.659430277e-1
1.401587792e0,-5.738880634e-1,4.740881324e-1,6.296042353e-2,7.470415528e-1
1.411620792e0,-4.569979608e-1,4.210366607e-1,4.196943343e-2,6.228004810e-1
1.421653792e0,-3.158933222e-1,3.894846141e-1,2.098345757e-2,5.019234615e-1
1.431686792e0,-1.322163343e-1,4.363417923e-1,-1.959693432e-2,4.563544222e-1
1.441719792e0,6.765070558e-2,5.838947892e-1,-5.039373040e-2,5.899570077e-1
1.451752792e0,2.760639191e-1,7.272933125e-1,-2.605487779e-2,7.783609102e-1
1.461785792e0,4.617102146e-1,8.103820682e-1,-4.943370447e-2,9.339909581e-1
1.471818792e0,6.209493279e-1,8.310867548e-1,-1.104986817e-1,1.043308785e0
1.481851792e0,7.392978072e-1,7.875400782e-1,-1.779134125e-1,1.094730015e0
1.491884792e0,8.174090981e-1,7.040102482e-1,-2.036128342e-1,1.097837078e0
1.501917792e0,8.629180193e-1,6.406883001e-1,-1.720594466e-1,1.088445432e0
1.511950792e0,8.829627037e-1,4.617876709e-1,-1.224763319e-1,1.003928006e0
1.521983792e0,8.738501668e-1,2.643806040e-1,-1.016125977e-1,9.186056487e-1
1.532016792e0,8.438109159e-1,1.176062375e-1,-1.325893998e-1,8.622227310e-1
1.542050792e0,7.880775928e-1,-2.720580623e-2,-2.012899071e-1,8.138329527e-1
1.552083792e0,7.052559257e-1,-1.929735094e-1,-2.467967570e-1,7.717080635e-1
1.562116792e0,5.937661529e-1,-2.958775461e-1,-2.505917549e-1,7.091530118e-1
1.572149792e0,4.356361926e-1,-4.559505880e-1,-2.646594048e-1,6.838965064e-1
1.582182792e0,2.556999624e-1,-5.011832714e-1,-2.301248759e-1,6.078853517e-1
1.592215792e0,6.707944721e-2,-5.213109851e-1,-1.463580132e-1,5.456055933e-1
1.602248792e0,-9.511478990e-2,-5.136749148e-1,-4.088671133e-2,5.240042601e-1
1.612281792e0,-2.219801545e-1,-4.833232164e-1,5.620293319e-2,5.348226718e-1
1.622314792e0,-2.981566787e-1,-4.101445973e-1,1.437796503e-1,5.270565279e-1
1.632347792e0,-3.295571804e-1,-2.727227509e-1,2.207928151e-1,4.813887215e-1
1.642380792e0,-3.382087350e-1,-1.070347205e-1,3.037680984e-1,4.670295894e-1
1.652413792e0,-3.479759693e-1,2.260454558e-2,4.079794288e-1,5.366986631e-1
1.662446792e0,-3.679313064e-1,4.327014089e-2,5.275340676e-1,6.446223265e-1
1.672479792e0,-3.943457603e-1,-3.014340438e-2,6.602314711e-1,7.696251028e-1
1.682512792e0,-3.935124576e-1,-2.521589100e-1,7.529752254e-1,8.862323964e-1
1.692545792e0,-3.609863222e-1,-4.745980799e-1,7.456078529e-1,9.547175146e-1
1.702578792e0,-3.108901083e-1,-5.389379263e-1,6.378848553e-1,8.910689291e-1
1.712612792e0,-2.520821095e-1,-4.590628445e-1,4.723683894e-1,7.052772365e-1
1.722645792e0,-2.056197971e-1,-3.321608305e-1,3.158112764e-1,5.023415975e-1
1.732679292e0,-1.807579696e-1,-1.999337971e-1,1.942845881e-1,3.322551248e-1
1.742712292e0,-1.734686345e-1,-7.049033046e-2,1.134645715e-1,2.189394045e-1
1.752745292e0,-1.875768900e-1,2.702007303e-3,7.218166441e-2,2.010039382e-1
1.762778292e0,-2.133006155e-1,2.957463451e-2,7.338754088e-2,2.275028412e-1
1.772811292e0,-2.418364882e-1,5.761495233e-2,9.398160875e-2,2.657760572e-1
1.782844292e0,-2.670419812e-1,9.664011747e-2,7.938189805e-2,2.948766145e-1
1.792877292e0,-2.829853296e-1,1.329755485e-1,1.465238165e-2,3.130141939e-1
1.802910292e0,-2.958462834e-1,1.732153744e-1,-7.747035474e-2,3.514686973e-1
1.812943292e0,-3.006651700e-1,2.731178105e-1,-1.909665912e-1,4.488442066e-1
1.822976292e0,-2.952821255e-1,3.451682925e-1,-3.014574349e-1,5.451690278e-1
1.833009292e0,-2.897676229e-1,3.368425965e-1,-3.756875992e-1,5.818671518e-1
1.843042292e0,-2.827672362e-1,2.936333418e-1,-4.136791825e-1,5.807825026e-1
1.853075292e0,-2.949710786e-1,2.629005313e-1,-4.205395281e-1,5.770425646e-1
1.863108292e0,-3.311192393e-1,2.353253663e-1,-4.105697274e-1,5.775685931e-1
1.873141292e0,-3.706302345e-1,1.661918163e-1,-4.102797210e-1,5.773352059e-1
1.883175292e0,-3.861868382e-1,5.077574402e-2,-4.160175025e-1,5.699026343e-1
1.893208292e0,-3.566341400e-1,-8.081240952e-2,-4.076702893e-1,5.476436981e-1
1.903241292e0,-2.726609409e-1,-1.840724796e-1,-3.809124529e-1,5.033100071e-1
1.913274292e0,-1.617293954e-1,-2.404131591e-1,-3.243582249e-1,4.349288936e-1
1.923307292e0,-4.492449388e-2,-2.978522182e-1,-2.347353846e-1,3.818833000e-1
1.933340292e0,4.087011516e-2,-3.828858137e-1,-1.255783141e-1,4.050207718e-1
1.943373292e0,8.853990585e-2,-4.451838136e-1,1.153532974e-2,4.540495641e-1
1.953406292e0,1.055805385e-1,-4.267693162e-1,1.501484513e-1,4.645684630e-1
1.963439292e0,9.850132465e-2,-3.345547020e-1,2.430895716e-1,4.251139841e-1
1.973472292e0,7.314231247e-2,-2.222818732e-1,2.499647886e-1,3.424053512e-1
1.983505292e0,3.659255803e-2,-1.041600332e-1,1.880143285e-1,2.180314554e-1
1.993538292e0,-1.175482944e-2,1.134408917e-2,1.157490313e-1,1.168961189e-1
2.003571292e0,-1.014682055e-1,1.073893905e-1,6.078670919e-2,1.597601387e-1
2.013604292e0,-2.182188034e-1,1.603732109e-1,4.245943204e-2,2.741200764e-1
2.023637292e0,-3.765128553e-1,2.008902729e-1,7.270468026e-2,4.329027633e-1
2.033670292e0,-5.782428980e-1,3.184482753e-1,1.651478559e-1,6.804762798e-1
2.043703292e0,-8.261360526e-1,4.760232568e-1,2.857597768e-1,9.953680568e-1
2.053736292e0,-1.092837453e0,6.113258600e-1,3.932559490e-1,1.312502666e0
2.063770292e0,-1.354204416e0,7.206134200e-1,4.515946209e-1,1.599090680e0
2.073803292e0,-1.560428977e0,7.569641471e-1,4.444145560e-1,1.790373595e0
2.083836292e0,-1.699447632e0,6.652536392e-1,3.923825026e-1,1.866721373e0
2.093869292e0,-1.769497514e0,5.029075742e-1,3.390109837e-1,1.870552305e0
2.103902292e0,-1.791708827e0,2.186159492e-1,3.078911602e-1,1.831068109e0
2.113935292e0,-1.792668939e0,-1.106146649e-1,3.150116503e-1,1.823493863e0
2.123968292e0,-1.798405647e0,-3.227466345e-1,3.304726481e-1,1.856782279e0
2.134001292e0,-1.817113996e0,-3.618385196e-1,2.956303656e-1,1.876226985e0
2.144034292e0,-1.836788893e0,-3.326359093e-1,2.327749878e-1,1.881123143e0
2.154067292e0,-1.835482001e0,-3.159292042e-1,1.678096652e-1,1.870017519e0
2.164100292e0,-1.794322610e0,-4.192191064e-1,1.312884092e-1,1.847315602e0
2.174133292e0,-1.718668461e0,-6.457489133e-1,1.184948683e-1,1.839797264e0
2.184166292e0,-1.627472520e0,-9.200640917e-1,9.964101762e-2,1.872194720e0
2.194199292e0,-1.517855644e0,-1.186594009e0,7.359170914e-2,1.928031856e0
2.204232292e0,-1.399617076e0,-1.309193134e0,5.379936099e-2,1.917239942e0
2.214265292e0,-1.298674464e0,-1.296221495e0,5.577715114e-2,1.835716922e0
2.224298292e0,-1.244074941e0,-1.271281838e0,5.896947905e-2,1.779707102e0
2.234331292e0,-1.267430544e0,-1.152740717e0,3.605916724e-2,1.713619447e0
2.244365292e0,-1.349037528e0,-9.435372949e-1,-1.115628239e-2,1.646295642e0
2.254398292e0,-1.448103666e0,-7.000409961e-1,-9.048566222e-2,1.610977740e0
2.264431292e0,-1.520976543e0,-3.894067109e-1,-1.918770075e-1,1.581715530e0
2.274464292e0,-1.557929754e0,-8.417150378e-2,-2.843344212e-1,1.585899122e0
2.284497292e0,-1.544422746e0,3.199727833e-1,-3.525467813e-1,1.616141526e0
2.294530292e0,-1.466520667e0,8.528856039e-1,-3.562996387e-1,1.733506894e0
2.304563292e0,-1.336649537e0,1.443587661e0,-3.217275441e-1,1.993510956e0
2.314596292e0,-1.134743810e0,1.842319012e0,-3.061567843e-1,2.185295136e0
2.324629292e0,-8.601687551e-1,1.846259713e0,-3.182265162e-1,2.061512389e0
2.334662292e0,-5.322745442e-1,1.526851058e0,-3.249079883e-1,1.649289406e0
2.344695292e0,-1.788094342e-1,1.082931995e0,-2.740181684e-1,1.131282669e0
2.354728292e0,1.845373064e-1,6.787470579e-1,-2.053076923e-1,7.327365383e-1
2.364761292e0,5.334135294e-1,3.555306494e-1,-1.413489580e-1,6.564385455e-1
2.374794292e0,8.468065858e-1,1.200228482e-1,-6.958935410e-2,8.580964725e-1
2.384827292e0,1.122630954e0,-4.813360516e-3,2.368040755e-2,1.122890996e0
2.394860292e0,1.380246162e0,-1.290818304e-1,9.506943822e-2,1.389525022e0
2.404893292e0,1.650901675e0,-3.067525029e-1,1.577035189e-1,1.686547906e0
2.414926292e0,1.962808490e0,-5.858785510e-1,2.419178784e-1,2.062618507e0
2.424959292e0,2.316481113e0,-9.313299656e-1,3.380569220e-1,2.519472710e0
2.434993292e0,2.720827103e0,-1.321842790e0,4.253139794e-1,3.054678455e0
2.445026292e0,3.184811592e0,-1.640063405e0,5.094816089e-1,3.618342764e0
2.455059292e0,3.699189425e0,-1.775688171e0,5.852010846e-1,4.144819802e0
2.465092292e0,4.208453178e0,-1.834812522e0,6.689076424e-1,4.639509950e0
2.475125292e0,4.651272774e0,-1.948510289e0,8.017035127e-1,5.106247084e0
2.485158292e0,5.058102131e0,-2.276790142e0,8.938515186e-1,5.618464297e0
2.495191292e0,5.495735645e0,-2.852510214e0,8.564015031e-1,6.250867807e0
2.505224292e0,6.081697464e0,-3.683080435e0,5.897058845e-1,7.134415082e0
2.515257292e0,6.908325672e0,-4.325291157e0,8.527769148e-2,8.151096826e0
2.525290292e0,8.013956070e0,-4.499960899e0,-5.428376794e-1,9.206943724e0
2.535323292e0,9.315511703e0,-4.269235611e0,-1.312028766e0,1.033085430e1
2.545356292e0,1.073146725e1,-3.642755270e0,-1.987378120e0,1.150581275e1
2.555389292e0,1.219002342e1,-2.951636553e0,-2.520990849e0,1.279313192e1
2.565422292e0,1.370036602e1,-2.110519409e0,-2.970834732e0,1.417674787e1
2.575455292e0,1.523771572e1,2.159229666e-1,-3.111533403e0,1.555365691e1
2.585488292e0,1.619825172e1,4.401586056e0,-3.071344614e0,1.706430416e1
2.595521292e0,1.665521622e1,5.634774208e0,-2.807920218e0,1.780537345e1
2.605554292e0,1.678736305e1,5.279847145e0,-2.260397196e0,1.774265312e1
2.615587292e0,1.687795258e1,4.968412876e0,-1.735303044e0,1.767941420e1
2.625621292e0,1.694878769e1,4.738842487e0,-1.231336355e0,1.764183158e1
2.635654292e0,1.699211311e1,4.573381901e0,-7.461600900e-1,1.761262289e1
2.645687292e0,1.701824951e1,4.486111641e0,-2.707754374e-1,1.760168553e1
2.655720292e0,1.701047325e1,4.469361305e0,1.974676698e-1,1.758892789e1
2.665753292e0,1.697846222e1,4.532078743e0,6.692767143e-1,1.758567168e1
2.675786292e0,1.691224289e1,4.668044090e0,1.147473216e0,1.758212985e1
2.685819292e0,1.682985687e1,4.869778633e0,1.635631084e0,1.759642337e1
2.695852292e0,1.670949745e1,5.145047188e0,2.146372080e0,1.761492914e1
2.705885292e0,1.655692863e1,5.502333641e0,2.681683540e0,1.765216666e1
2.715918292e0,1.636374474e1,5.943412304e0,3.247046471e0,1.770987302e1
2.725950958e0,1.612285233e1,6.474999428e0,3.847620964e0,1.779539749e1
2.735983958e0,1.581625748e1,7.099740982e0,4.492012024e0,1.790917348e1
2.746016958e0,1.543571758e1,7.816191673e0,5.180238724e0,1.806070604e1
2.756049958e0,1.496170616e1,8.619452477e0,5.915849686e0,1.825225711e1
2.766082958e0,1.437689209e1,9.508888245e0,6.696868896e0,1.849221552e1
2.776115958e0,1.364442921e1,1.046069908e1,7.507025242e0,1.876038650e1
2.786148958e0,1.275187302e1,1.146440315e1,8.347095490e0,1.907136094e1
2.796181958e0,1.167196846e1,1.248189640e1,9.184700966e0,1.940080713e1
2.806214958e0,1.039669228e1,1.348996353e1,1.000611496e1,1.975329499e1
2.816247958e0,8.914474487e0,1.444180202e1,1.076825142e1,2.009947113e1
2.826281958e0,7.236079216e0,1.529851627e1,1.144173336e1,2.042837989e1
2.836314958e0,5.375291824e0,1.599792099e1,1.198481369e1,2.069934775e1
2.846347958e0,3.367440701e0,1.650309181e1,1.236783123e1,2.089629023e1
2.856380958e0,1.265692353e0,1.677638817e1,1.256095505e1,2.099587504e1
2.866413958e0,-8.719418049e-1,1.680015564e1,1.255410957e1,2.099074032e1
2.876446958e0,-2.973935843e0,1.656829453e1,1.234108829e1,2.087235344e1
2.886479958e0,-4.979072094e0,1.610347366e1,1.194785118e1,2.066069144e1
2.896512958e0,-6.838541508e0,1.543622303e1,1.139131451e1,2.036675422e1
2.906545958e0,-8.516190529e0,1.463003254e1,1.071309757e1,2.003331757e1
2.916578958e0,-9.987918854e0,1.371656895e1,9.950662613e0,1.967024334e1
2.926611958e0,-1.126027107e1,1.275190639e1,9.141655922e0,1.931255277e1
2.936644958e0,-1.232572937e1,1.177213764e1,8.315063477e0,1.896436421e1
2.946677958e0,-1.321851635e1,1.081926060e1,7.496262074e0,1.865420916e1
2.956710958e0,-1.394477654e1,9.913117409e0,6.700084686e0,1.837437956e1
2.966743958e0,-1.453217220e1,9.067208290e0,5.943471432e0,1.813072386e1
2.976776958e0,-1.500008106e1,8.289952278e0,5.231067657e0,1.791897903e1
2.986809958e0,-1.536888695e1,7.592801094e0,4.562427044e0,1.773891358e1
2.996842958e0,-1.565250397e1,6.975345612e0,3.939551353e0,1.758341240e1
3.006875958e0,-1.587564182e1,6.436400890e0,3.355293512e0,1.745626691e1
3.016908958e0,-1.604173279e1,5.974964142e0,2.813349724e0,1.734797752e1
3.026941958e0,-1.616881943e1,5.584588528e0,2.306424856e0,1.726087907e1
3.036975958e0,-1.625897598e1,5.269434452e0,1.825534701e0,1.718877007e1
3.047008958e0,-1.632137680e1,5.020800114e0,1.373023391e0,1.713128622e1
3.057041958e0,-1.635924149e1,4.838808537e0,9.380320907e-1,1.708563005e1
3.067074958e0,-1.638209915e1,4.726423264e0,5.167642236e-1,1.705811522e1
3.077107958e0,-1.638246155e1,4.679823399e0,1.029527783e-1,1.703808653e1
3.087140958e0,-1.636812782e1,4.695435047e0,-3.095210493e-1,1.703110454e1
3.097173958e0,-1.633148003e1,4.774873734e0,-7.289409041e-1,1.703079604e1
3.107206958e0,-1.627235413e1,4.913434982e0,-1.151526451e0,1.703694120e1
3.117239958e0,-1.617899895e1,5.110703468e0,-1.596209407e0,1.704192423e1
3.127272958e0,-1.606692696e1,5.367478371e0,-2.056458473e0,1.706414332e1
3.137305958e0,-1.591651154e1,5.683953762e0,-2.542463064e0,1.709113186e1
3.147338958e0,-1.573496723e1,6.066447735e0,-3.054583311e0,1.713830392e1
3.157371958e0,-1.550657082e1,6.509435654e0,-3.600610733e0,1.719857229e1
3.167404958e0,-1.522719669e1,7.022689342e0,-4.179946423e0,1.728171394e1
3.177437958e0,-1.487670517e1,7.616292953e0,-4.796736717e0,1.738772435e1
3.187470958e0,-1.445354176e1,8.292102814e0,-5.453162193e0,1.753284963e1
3.197503958e0,-1.393187618e1,9.045632362e0,-6.150893688e0,1.771310622e1
3.207536958e0,-1.329623413e1,9.866083145e0,-6.887537003e0,1.793230617e1
3.217569958e0,-1.252607822e1,1.074108315e1,-7.651970387e0,1.818862704e1
3.227602958e0,-1.161813450e1,1.165391636e1,-8.438063622e0,1.849312665e1
3.237635958e0,-1.053853798e1,1.257267952e1,-9.216380119e0,1.881687316e1
3.247669958e0,-9.286725998e0,1.346462536e1,-9.974681854e0,1.915812344e1
3.257702958e0,-7.858965397e0,1.428409958e1,-1.067937469e1,1.948968655e1
3.267735958e0,-6.257896423e0,1.497080421e1,-1.129930305e1,1.977272101e1
3.277768958e0,-4.507582188e0,1.548105431e1,-1.180068970e1,1.998093133e1
3.287801958e0,-2.651191473e0,1.577781773e1,-1.215460491e1,2.009235598e1
3.297834958e0,-7.180066109e-1,1.583450031e1,-1.233892250e1,2.008720842e1
3.307867958e0,1.234426856e0,1.567854023e1,-1.234894943e1,1.999592422e1
3.317900958e0,3.140144110e0,1.533676434e1,-1.218482208e1,1.983801236e1
3.327933958e0,4.964455128e0,1.485273552e1,-1.185804844e1,1.964339278e1
3.337966958e0,6.663159847e0,1.425493240e1,-1.138621235e1,1.942283781e1
3.347999958e0,8.211053848e0,1.359875298e1,-1.080347919e1,1.921100337e1
3.358032958e0,9.584784508e0,1.291057396e1,-1.013435078e1,1.900673774e1
3.368065958e0,1.076934052e1,1.220487976e1,-9.394376755e0,1.879340575e1
3.378098958e0,1.177305031e1,1.147565746e1,-8.620257378e0,1.856351974e1
3.388131958e0,1.261608124e1,1.073780441e1,-7.826413155e0,1.832262788e1
3.398164958e0,1.330210209e1,9.996302605e0,-7.034715176e0,1.806541456e1
3.408197958e0,1.384370995e1,9.266414642e0,-6.260240078e0,1.779621733e1
3.418230958e0,1.425756073e1,8.588614464e0,-5.516177654e0,1.753483825e1
3.428263958e0,1.459112740e1,7.966399193e0,-4.806880474e0,1.730521929e1
3.438296958e0,1.486025524e1,7.408480644e0,-4.133794785e0,1.711142982e1
3.448329958e0,1.507356453e1,6.909755230e0,-3.494634867e0,1.694607736e1
3.458362958e0,1.524093437e1,6.473612785e0,-2.890303612e0,1.680915221e1
3.468395958e0,1.538353920e1,6.098895073e0,-2.311190605e0,1.670902156e1
3.478429958e0,1.551937103e1,5.781107426e0,-1.756398439e0,1.665403902e1
3.488462958e0,1.564244652e1,5.527023792e0,-1.222027183e0,1.663512776e1
3.498495958e0,1.573948860e1,5.342947483e0,-7.029323578e-1,1.663648710e1
3.508528958e0,1.581188679e1,5.207507610e0,-1.976505667e-1,1.664851240e1
3.518561958e0,1.586477184e1,5.120315552e0,3.020910621e-1,1.667332828e1
3.528594958e0,1.589865494e1,5.078750134e0,8.025219440e-1,1.670942767e1
3.538627958e0,1.591224957e1,5.097514153e0,1.300842047e0,1.675937131e1
3.548660958e0,1.590764809e1,5.162324429e0,1.796653867e0,1.682054774e1
3.558693958e0,1.539860725e1,4.574053764e0,2.249729633e0,1.622036857e1
3.568726958e0,2.583833694e0,-2.399056816e1,1.199473739e-1,2.412960722e1
3.578759958e0,-1.495234299e1,-2.134628296e1,-7.637757063e-1,2.607335249e1
3.588792958e0,-1.105430984e1,-2.683165550e0,-6.552172899e-1,1.139414118e1
3.598825958e0,1.531855583e0,3.383504629e0,-1.315211952e-1,3.716447622e0
3.608858958e0,6.998023391e-1,7.214699268e0,1.108969569e0,7.332899996e0
3.618891958e0,-2.818371773e0,8.119681358e0,2.646550238e-1,8.598981747e0
3.628924958e0,-4.220299721e0,6.674679756e0,-5.409882069e-1,7.915487845e0
3.638957958e0,-4.246633053e0,6.534711361e0,-7.791491747e-1,7.832203923e0
3.648990958e0,-4.184773445e0,6.509446621e0,-9.386548996e-1,7.795274025e0
3.659023958e0,-4.108054161e0,6.498991013e0,-1.095997691e0,7.766221997e0
3.669056958e0,-4.024855614e0,6.503165722e0,-1.249385595e0,7.749296193e0
3.679089958e0,-3.927408218e0,6.520102024e0,-1.399877906e0,7.739245691e0
3.689122958e0,-3.824968338e0,6.542078495e0,-1.552320957e0,7.735559073e0
3.699156958e0,-3.712341309e0,6.569234371e0,-1.696524978e0,7.733984433e0
3.709189958e0,-3.588888407e0,6.605277061e0,-1.837978601e0,7.738731834e0
3.719222958e0,-3.458388090e0,6.653747082e0,-1.979059458e0,7.755609244e0
3.729256042e0,-3.314194202e0,6.708018303e0,-2.112880468e0,7.774680485e0
3.739289042e0,-3.170535803e0,6.762045383e0,-2.245482922e0,7.798701725e0
3.749322042e0,-3.007863522e0,6.827897549e0,-2.369838953e0,7.828381989e0
3.759355042e0,-2.840419292e0,6.893689632e0,-2.489486694e0,7.860565025e0
3.769388042e0,-2.664268017e0,6.962598801e0,-2.605950117e0,7.897283212e0
3.779421042e0,-2.478502512e0,7.026120186e0,-2.715708256e0,7.929969161e0
3.789454042e0,-2.282942533e0,7.086719513e0,-2.817735910e0,7.960719548e0
3.799487042e0,-2.077814579e0,7.148270130e0,-2.910492659e0,7.992874752e0
3.809520042e0,-1.865308285e0,7.202749252e0,-3.001256704e0,8.022874397e0
3.819553042e0,-1.649611115e0,7.254311085e0,-3.078970432e0,8.051478440e0
3.829586042e0,-1.428104281e0,7.303367138e0,-3.147181273e0,8.079814562e0
3.839619042e0,-1.200047016e0,7.339407444e0,-3.209385633e0,8.099825345e0
3.849652042e0,-9.648340344e-1,7.372457504e0,-3.261483192e0,8.119193740e0
3.859685042e0,-7.254204750e-1,7.396495342e0,-3.303454638e0,8.133092324e0
3.869718042e0,-4.823976755e-1,7.413055897e0,-3.334740877e0,8.142886587e0
3.879751042e0,-2.358097136e-1,7.422220707e0,-3.357527733e0,8.149721401e0
3.889784042e0,1.175881363e-2,7.427111626e0,-3.367980003e0,8.155085203e0
3.899817042e0,2.570171654e-1,7.417780399e0,-3.367803574e0,8.150559784e0
3.909850042e0,5.033577085e-1,7.406856537e0,-3.359657526e0,8.148753980e0
3.919883042e0,7.502931356e-1,7.383646011e0,-3.337752342e0,8.137675277e0
3.929916042e0,9.974251390e-1,7.353757858e0,-3.309565306e0,8.125628225e0
3.939949042e0,1.237065673e0,7.319059849e0,-3.266389608e0,8.109763845e0
3.949983042e0,1.469504833e0,7.276971340e0,-3.215287924e0,8.090230700e0
3.960016042e0,1.701424122e0,7.225340366e0,-3.154953718e0,8.065613456e0
3.970049042e0,1.924936771e0,7.172669888e0,-3.083794832e0,8.041291280e0
3.980082042e0,2.138356447e0,7.111133575e0,-3.003802061e0,8.010219463e0
3.990115042e0,2.346120358e0,7.048357964e0,-2.917359591e0,7.980890783e0
4.000148042e0,2.545606852e0,6.979206562e0,-2.823662519e0,7.947484413e0
4.010181042e0,2.733634949e0,6.912585735e0,-2.724801779e0,7.917142560e0
4.020214042e0,2.914319992e0,6.835453987e0,-2.617537260e0,7.878336978e0
4.030247042e0,3.086282969e0,6.762941360e0,-2.501930714e0,7.843607314e0
4.040280042e0,3.248521805e0,6.688588619e0,-2.381835699e0,7.807896831e0
4.050313042e0,3.398010254e0,6.614948750e0,-2.257137537e0,7.771659443e0
4.060346042e0,3.537596941e0,6.546073914e0,-2.130217075e0,7.739735176e0
4.070379042e0,3.671632767e0,6.476175308e0,-1.996242523e0,7.707575365e0
4.080412042e0,3.790901184e0,6.409946918e0,-1.862068653e0,7.676304512e0
4.090445042e0,3.905934811e0,6.350855350e0,-1.719812751e0,7.651630305e0
4.100478042e0,4.013295174e0,6.294695377e0,-1.580640912e0,7.630737431e0
4.110511042e0,4.107485771e0,6.243601799e0,-1.437347174e0,7.610517044e0
4.120544042e0,4.189943314e0,6.200111389e0,-1.294195175e0,7.594204854e0
4.130577042e0,4.269982815e0,6.163072109e0,-1.143803596e0,7.584490604e0
4.140610042e0,4.339213371e0,6.135406971e0,-9.959960580e-1,7.580501272e0
4.150643042e0,4.402642727e0,6.116557121e0,-8.459511399e-1,7.583611760e0
4.160676042e0,4.638619423e0,6.361177444e0,-7.189230919e-1,7.905581512e0
4.170709042e0,5.977010727e0,8.494720459e0,6.887374818e-2,1.038699555e1
4.180742042e0,7.555851460e0,1.151922035e1,1.063875794e0,1.381720523e1
4.190775042e0,1.235441589e1,2.089755440e1,2.401287079e0,2.439478533e1
4.200808042e0,2.019487762e1,3.318558502e1,6.715917110e0,3.942359291e1
4.210842042e0,2.553436470e1,3.068051529e1,1.220050526e1,4.173907195e1
4.220875042e0,1.804736328e1,9.425476074e0,6.188395500e0,2.128011183e1
4.230908042e0,4.061599255e0,-7.937269688e0,-3.383476734e0,9.536495866e0
4.240941042e0,-3.442982912e0,-6.701989174e0,-4.380240440e0,8.715348331e0
4.250974042e0,-5.051527500e0,-7.237423658e-1,-1.922625899e0,5.453276395e0
4.261007042e0,-5.861813068e0,5.642186403e-1,4.042256474e-1,5.902761514e0
4.271040042e0,-6.253146648e0,9.089334011e-1,1.721438646e0,6.549149101e0
4.281073042e0,-6.361648083e0,2.615096271e-1,1.792052150e0,6.614408857e0
4.291106042e0,-5.821690083e0,-1.465020776e-1,1.445665717e0,6.000290630e0
4.301139042e0,-4.992019653e0,-2.623011172e-1,1.113755345e0,5.121475673e0
4.311172042e0,-4.073947906e0,-4.694871604e-3,6.615279913e-1,4.127310610e0
4.321205042e0,-3.314491510e0,1.010191813e-2,8.372911811e-2,3.315564294e0
4.331238042e0,-2.721734762e0,-6.931514293e-2,-4.293179512e-1,2.756258081e0
4.341271042e0,-2.118950129e0,-2.017714456e-2,-8.668640852e-1,2.289499969e0
4.351304042e0,-1.431182265e0,1.354641169e-1,-1.216752052e0,1.883379611e0
4.361337042e0,-7.394827008e-1,3.157753944e-1,-1.286225080e0,1.516879600e0
4.371370042e0,-6.530453265e-2,6.455397010e-1,-1.099180698e0,1.276395078e0
4.381403042e0,6.407722235e-1,1.022435188e0,-7.333222628e-1,1.411993023e0
4.391436042e0,1.405972362e0,1.349780560e0,-1.786907911e-1,1.957190905e0
4.401469042e0,2.206213951e0,1.413740754e0,5.673364401e-1,2.681028451e0
4.411502042e0,3.010828018e0,1.292660356e0,1.486450315e0,3.597998150e0
4.421535042e0,3.747797966e0,1.060598373e0,2.500680685e0,4.628635046e0
4.431568042e0,4.291386604e0,4.877136350e-1,3.390569210e0,5.490885461e0
4.441601042e0,4.559517860e0,-4.006697536e-1,3.933224678e0,6.034898155e0
4.451634042e0,4.382711411e0,-1.622683883e0,4.026970387e0,6.169096594e0
4.461668042e0,3.689178705e0,-2.794161558e0,3.715169191e0,5.934632293e0
4.471701042e0,2.754946232e0,-3.306679249e0,2.942296267e0,5.213536584e0
4.481734042e0,1.546321750e0,-3.131093502e0,1.682082415e0,3.876113869e0
4.491767042e0,2.232268155e-1,-2.226995468e0,2.813017070e-1,2.255763657e0
4.501800042e0,-7.812283039e-1,-8.707555532e-1,-5.787864327e-1,1.305192182e0
4.511833042e0,-1.080135226e0,3.272003233e-1,-5.220512152e-1,1.243498946e0
4.521866042e0,-9.160996675e-1,9.283406138e-1,-6.301586330e-2,1.305766401e0
4.531899042e0,-9.151137471e-1,1.001774788e0,1.128755361e-1,1.361516354e0
4.541932042e0,-1.194845915e0,8.592147231e-1,-8.822546341e-3,1.471728419e0
4.551965042e0,-1.557793736e0,6.361286640e-1,-2.483557910e-1,1.700900233e0
4.561998042e0,-1.756072283e0,4.145696759e-1,-4.786409140e-1,1.866749850e0
4.572031042e0,-1.667678237e0,2.777723968e-1,-5.661558509e-1,1.782930356e0
4.582064042e0,-1.237676263e0,2.454786152e-1,-4.546148777e-1,1.341184912e0
4.592097042e0,-5.716329813e-1,2.668007016e-1,-1.766674072e-1,6.551017115e-1
4.602130042e0,1.450405121e-1,2.631627321e-1,1.740799397e-1,3.472681948e-1
4.612163042e0,7.114335895e-1,2.141890973e-1,4.946499765e-1,8.925767871e-1
4.622196042e0,1.012445688e0,8.427788317e-2,7.133735418e-1,1.241390689e0
4.632229042e0,1.068696141e0,-1.148152500e-1,8.259291053e-1,1.355526787e0
4.642262042e0,9.997380376e-1,-3.331772685e-1,8.485168815e-1,1.352946464e0
4.652295042e0,9.206833839e-1,-5.151848793e-1,7.845128775e-1,1.314737163e0
4.662328042e0,8.411931396e-1,-5.939703584e-1,6.356708407e-1,1.210158710e0
4.672361042e0,7.164812684e-1,-5.330052972e-1,4.433554113e-1,9.969975303e-1
4.682394042e0,5.001938939e-1,-3.611766696e-1,2.470161468e-1,6.645746722e-1
4.692427042e0,1.988379806e-1,-1.473437548e-1,7.846681774e-2,2.596223528e-1
4.702460042e0,-1.231236458e-1,3.740904480e-2,-4.182231426e-2,1.353069649e-1
4.712493042e0,-3.769197166e-1,1.370128542e-1,-1.035764962e-1,4.142089878e-1
4.722526042e0,-5.201294422e-1,1.569476724e-1,-1.046909541e-1,5.532878133e-1
4.732558833e0,-5.728035569e-1,1.526176482e-1,-9.558188170e-2,6.004431343e-1
4.742592833e0,-5.554507375e-1,1.729621142e-1,-9.366692603e-2,5.892494444e-1
4.752625833e0,-4.739761353e-1,2.004877478e-1,-9.006500244e-2,5.224561402e-1
4.762658833e0,-3.416498899e-1,2.014276683e-1,-7.190255076e-2,4.030728590e-1
4.772691833e0,-1.619760245e-1,1.606959552e-1,-2.125908062e-2,2.291535970e-1
4.782724833e0,4.170772433e-2,9.563820064e-2,5.418948829e-2,1.175699806e-1
4.792757833e0,2.196268737e-1,1.540515106e-2,1.301140785e-1,2.557400160e-1
4.802790833e0,3.331471980e-1,-5.387806520e-2,1.971426308e-1,3.908389928e-1
4.812823833e0,3.678481877e-1,-1.035745144e-1,2.246903777e-1,4.433122320e-1
4.822856833e0,3.386328220e-1,-1.328850538e-1,2.141754776e-1,4.221395041e-1
4.832889833e0,2.718569934e-1,-1.360065490e-1,1.724160463e-1,3.494728877e-1
4.842922833e0,1.823163033e-1,-1.286872774e-1,1.212654039e-1,2.539782432e-1
4.852955833e0,8.086585253e-2,-1.042058915e-1,7.809316367e-2,1.532863208e-1
4.862988833e0,-2.543264255e-2,-5.421176553e-2,3.918397054e-2,7.156198974e-2
4.873021833e0,-1.190036014e-1,1.281253900e-2,3.001465229e-3,1.197289735e-1
4.883054833e0,-1.832269877e-1,6.794604659e-2,-1.891523227e-2,1.963328304e-1
4.893087833e0,-2.130778283e-1,9.635131806e-2,-3.236659616e-2,2.360790841e-1
4.903120833e0,-2.004913837e-1,1.005058959e-1,-2.967446111e-2,2.262273274e-1
4.913153833e0,-1.487480402e-1,8.779382706e-2,-1.721858978e-2,1.735805731e-1
4.923186833e0,-7.735085487e-2,7.394824177e-2,8.745410480e-3,1.073684284e-1
4.933219833e0,8.049349999e-4,5.352605879e-2,3.563907743e-2,6.431042474e-2
4.943252833e0,7.569763809e-2,2.687717974e-2,6.729475409e-2,1.047907397e-1
4.953285833e0,1.215143949e-1,-8.160164580e-3,8.766207844e-2,1.500565775e-1
4.963318833e0,1.355339140e-1,-4.376910627e-2,9.830198437e-2,1.730562239e-1
4.973351833e0,1.306158602e-1,-6.540489942e-2,9.374184906e-2,1.735679639e-1
4.983384833e0,9.939943999e-2,-6.996215135e-2,7.815708220e-2,1.445111788e-1
4.993417833e0,5.608285591e-2,-5.580398813e-2,5.740573257e-2,9.774860587e-2
5.003450833e0,6.107257679e-3,-3.118080646e-2,3.668970615e-2,4.853530493e-2
5.013483833e0,-3.453923762e-2,-1.351805287e-3,1.541264728e-2,3.784621525e-2
5.023516833e0,-6.824780256e-2,2.641119808e-2,1.064750948e-3,7.318775603e-2
5.033549833e0,-9.491829574e-2,4.762141034e-2,-4.608048126e-3,1.062944763e-1
5.043583833e0,-8.853088319e-2,5.385315046e-2,-3.671790473e-4,1.036243886e-1
5.053616833e0,-6.639735401e-2,5.051115155e-2,2.551911864e-3,8.346554561e-2
5.063649833e0,-3.447978571e-2,3.627097979e-2,1.075232401e-2,5.118644420e-2
5.073682833e0,5.422358867e-3,2.192053571e-2,3.040325642e-2,3.787175547e-2
5.083715833e0,3.469549119e-2,2.319766209e-4,4.069216922e-2,5.347600918e-2
5.093748833e0,5.587428063e-2,-1.246890519e-2,5.508735403e-2,7.944825616e-2
5.103781833e0,6.088268757e-2,-1.985780522e-2,5.833901465e-2,8.662837124e-2
5.113814833e0,6.249603257e-2,-2.577721328e-2,5.219590664e-2,8.540861479e-2
5.123847833e0,4.668712243e-2,-2.301606350e-2,4.316458479e-2,6.762106151e-2
5.133880833e0,2.289950103e-2,-1.676695608e-2,3.210394457e-2,4.285068518e-2
5.143913833e0,-6.921244320e-3,-3.627185710e-3,2.215943485e-2,2.349682217e-2
5.153946833e0,-3.082284890e-2,1.530602574e-2,1.383812260e-2,3.709199476e-2
5.163979833e0,-4.627377540e-2,2.276869677e-2,8.202932775e-3,5.222034037e-2
5.174012833e0,-4.626046121e-2,2.399561368e-2,5.238833837e-3,5.237618855e-2
5.184045833e0,-3.874690086e-2,2.422394417e-2,1.124521624e-2,4.705928905e-2
5.194078833e0,-2.069279924e-2,1.963744871e-2,1.179755572e-2,3.087075725e-2
5.204111833e0,-1.895630034e-3,1.282521337e-2,1.834449917e-2,2.246330699e-2
5.214144833e0,1.521091815e-2,4.028792027e-3,2.526072785e-2,2.976083950e-2
5.224177833e0,2.746442519e-2,-2.631962532e-3,2.993453294e-2,4.070992680e-2
5.234210833e0,3.455588967e-2,-6.987029687e-3,3.179475293e-2,4.747456591e-2
5.244243833e0,3.135638684e-2,-1.114662364e-2,3.476051614e-2,4.812238249e-2
5.254276833e0,2.149816044e-2,-8.975348435e-3,2.947440930e-2,3.756951670e-2
5.264309833e0,7.168960292e-3,-1.629418693e-3,2.604222670e-2,2.706005485e-2
5.274342833e0,-5.927933380e-3,4.274010658e-3,1.997155137e-2,2.126665055e-2
5.284375833e0,-1.545626204e-2,9.439061396e-3,1.530764531e-2,2.371320142e-2
5.294408833e0,-2.307423577e-2,1.337308343e-2,1.331133954e-2,2.980690318e-2
5.304441833e0,-2.395563945e-2,1.399557851e-2,1.250776183e-2,3.043341889e-2
5.314474833e0,-1.599624939e-2,1.307865232e-2,1.516319998e-2,2.562915868e-2
5.324507833e0,-1.005988009e-2,8.077559993e-3,1.660232060e-2,2.102582251e-2
5.334540833e0,4.026141251e-4,1.156270038e-3,2.053767443e-2,2.057413739e-2
5.344573833e0,1.100181136e-2,-1.694434788e-3,2.641292289e-2,2.866275385e-2
5.354607833e0,1.829940639e-2,-1.436374499e-3,2.560998127e-2,3.150877000e-2
5.364640833e0,1.914860867e-2,-1.830685651e-3,2.459353209e-2,3.122278726e-2
5.374673833e0,1.622632332e-2,1.935830805e-4,2.375889756e-2,2.877179619e-2
5.384706833e0,1.116731949e-2,2.454574220e-3,2.102362737e-2,2.393171258e-2
5.394739833e0,5.423946772e-3,3.691879101e-3,1.987873577e-2,2.093354498e-2
5.404772833e0,-3.342321375e-3,8.608429693e-3,1.993336715e-2,2.196850700e-2
5.414805833e0,-8.169833571e-3,6.673109718e-3,1.396762021e-2,1.750345646e-2
5.424838833e0,-1.307457872e-2,6.775007583e-3,1.444143057e-2,2.062523341e-2
5.434871833e0,-1.263062935e-2,6.255690940e-3,1.465954445e-2,2.033638883e-2
5.444904833e0,-7.774801925e-3,4.811712075e-3,1.622566395e-2,1.862450774e-2
5.454937833e0,-3.769674106e-3,3.498240840e-3,1.498063747e-2,1.583880143e-2
5.464970833e0,3.043633187e-3,2.772463486e-3,1.794193126e-2,1.840823604e-2
5.475003833e0,6.698822137e-3,-9.881862206e-4,1.825751550e-2,1.947273998e-2
5.485036833e0,9.235869162e-3,-3.478486557e-3,2.076462470e-2,2.299066739e-2
5.495069833e0,9.982619435e-3,-4.673702642e-5,1.964503154e-2,2.203592838e-2
5.505102833e0,8.508932777e-3,1.175549347e-3,2.025306225e-2,2.199932689e-2
5.515135833e0,4.328036215e-3,4.293844569e-3,1.842187159e-2,1.940449307e-2
5.525168833e0,2.092499199e-4,6.213440560e-3,1.576171443e-2,1.694350232e-2
5.535201833e0,-3.258984536e-3,5.921292119e-3,1.523307711e-2,1.666521283e-2
5.545234833e0,-4.248531070e-3,7.865914144e-3,1.296317764e-2,1.574695513e-2
5.555267833e0,-7.392659318e-3,5.030181259e-3,1.329500694e-2,1.602221410e-2
5.565300833e0,-3.521388629e-3,5.016141105e-3,1.378613058e-2,1.508705558e-2
5.575333833e0,-1.241722610e-3,2.217158675e-3,1.505033299e-2,1.526336106e-2
5.585366833e0,2.510591410e-3,-1.060764887e-3,1.441188715e-2,1.466733727e-2
5.595399833e0,3.850161331e-3,-4.330577794e-4,1.391414367e-2,1.444349941e-2
5.605432833e0,3.559258766e-3,-5.047435407e-4,1.601748914e-2,1.641593882e-2
5.615465833e0,4.569662269e-3,3.312227782e-4,1.622548327e-2,1.685994748e-2
5.625498833e0,4.801540636e-3,3.272741335e-3,1.567655429e-2,1.671885112e-2
5.635531833e0,5.724410294e-4,3.432264784e-3,1.531862468e-2,1.570886349e-2
5.645564833e0,2.217172179e-3,4.610901233e-3,1.461372804e-2,1.548345278e-2
5.655597833e0,-1.495540841e-3,5.780029111e-3,1.136573683e-2,1.283843264e-2
5.665630833e0,-4.661914427e-3,5.638415925e-3,1.299573295e-2,1.491355944e-2
5.675663833e0,-2.589176409e-3,3.759289626e-3,1.508498192e-2,1.576048135e-2
5.685697833e0,-2.299760468e-3,2.619904932e-3,1.365319453e-2,1.409122142e-2
5.695730833e0,-1.103973773e-5,1.418286702e-3,1.433017105e-2,1.440018963e-2
5.705763833e0,-2.445051447e-3,2.647351706e-3,1.390327234e-2,1.436272012e-2
5.715796833e0,8.609967772e-4,2.587164054e-3,1.407264918e-2,1.433437087e-2
5.725829833e0,2.016223269e-3,1.449217787e-3,1.301823743e-2,1.325292021e-2
5.735863417e0,1.225264627e-3,3.690534038e-3,1.337403618e-2,1.392789139e-2
5.745896417e0,2.868948970e-3,1.202437095e-3,1.304422505e-2,1.341001605e-2
5.755929417e0,2.146966057e-3,3.015783150e-3,1.209587324e-2,1.264968619e-2
5.765962417e0,7.629845059e-4,3.501845291e-3,1.446682401e-2,1.490416260e-2
5.775995417e0,5.078535760e-4,4.707991146e-3,1.386175398e-2,1.464825311e-2
5.786028417e0,-2.181282965e-3,3.001502482e-3,1.076117530e-2,1.138287778e-2
5.796061417e0,4.957264755e-4,2.849169774e-3,1.050151698e-2,1.089244564e-2
5.806094417e0,-1.725023030e-3,4.522426520e-3,1.064939797e-2,1.169776573e-2
5.816127417e0,-1.156704500e-3,3.774344921e-3,1.119241584e-2,1.186818509e-2
5.826160417e0,2.410908462e-3,2.309997100e-3,1.235417649e-2,1.279743111e-2
5.836193417e0,2.600791864e-3,4.404580686e-4,1.440427825e-2,1.464381622e-2
5.846226417e0,2.674252726e-3,2.002810128e-3,1.329631358e-2,1.370966196e-2
5.856259417e0,1.351726940e-3,1.364184078e-3,1.073062420e-2,1.090112194e-2
5.866292417e0,1.801985316e-3,4.069746938e-3,1.270850282e-2,1.346536428e-2
5.876325417e0,-2.177560673e-4,1.910988707e-3,1.064854767e-2,1.082085316e-2
5.886358417e0,1.824355917e-3,4.664697219e-3,1.104668994e-2,1.212918106e-2
5.896391417e0,1.146847615e-3,2.595154569e-3,1.471972186e-2,1.499067371e-2
5.906424417e0,-1.464441768e-3,-1.355370041e-3,1.332095545e-2,1.346957578e-2
5.916457417e0,-3.645480319e-5,3.948581405e-3,1.337315328e-2,1.394395399e-2
5.926490417e0,2.317226026e-3,3.650929546e-3,1.079509780e-2,1.162897070e-2
5.936523417e0,-6.183764199e-4,2.430402907e-3,1.146328449e-2,1.173439982e-2
5.946556417e0,1.108846627e-3,4.340799060e-3,1.402442157e-2,1.472265186e-2
5.956589417e0,4.531764425e-4,3.566884436e-3,8.503689431e-3,9.232592669e-3
5.966622417e0,-2.947214234e-4,3.627396189e-3,1.160888374e-2,1.216597902e-2
5.976655417e0,-1.550135436e-3,3.711019177e-3,1.238093339e-2,1.301776074e-2
5.986688417e0,-6.395370292e-5,2.295466373e-3,1.101352181e-2,1.125037416e-2
5.996721417e0,1.339532202e-3,4.112008959e-3,8.499231189e-3,9.536241136e-3
6.006754417e0,5.349568091e-4,1.452319091e-3,1.027226914e-2,1.038821076e-2
6.016787417e0,1.991322206e-4,1.846467145e-3,1.142941229e-2,1.157931604e-2
6.026820417e0,-6.380362174e-5,7.817221340e-4,8.951823227e-3,8.986117042e-3
6.036853417e0,9.013259551e-4,1.199305756e-3,1.273990329e-2,1.282793275e-2
6.046886417e0,1.282586483e-3,2.863665577e-4,1.074783225e-2,1.082787753e-2
6.056919417e0,-4.543272662e-4,4.125313368e-3,8.816507645e-3,9.744507720e-3
6.066953417e0,2.431905130e-3,2.271573991e-3,9.849118069e-3,1.039612128e-2
6.076986417e0,1.491893455e-2,1.077478193e-2,-1.987834228e-3,1.851005183e-2
6.087019417e0,4.889070988e-2,3.923270479e-2,-2.983913384e-2,6.942535953e-2
6.097052417e0,-1.929766499e-2,9.157180786e-2,-1.486444473e-2,9.475625355e-2
6.107085417e0,-1.240166277e-1,2.316785306e-1,9.213111550e-2,2.784658110e-1
6.117118417e0,1.006261539e-2,4.162299931e-1,1.396474987e-1,4.391469996e-1
6.127151417e0,1.861184835e-1,4.350886345e-1,1.051094905e-1,4.847578929e-1
6.137184417e0,2.286286503e-1,1.028235927e-1,5.090377480e-2,2.558025513e-1
6.147217417e0,2.426933646e-1,-3.354504704e-1,-7.761774212e-2,4.212500460e-1
6.157250417e0,1.858737618e-1,-2.931789160e-1,-1.139168888e-1,3.653491339e-1
6.167283417e0,-1.907840371e-2,2.896898985e-1,2.784373937e-3,2.903308036e-1
6.177316417e0,-1.087313294e-1,6.621646285e-1,5.253035948e-2,6.730853853e-1
6.187349417e0,-6.287280470e-2,4.357167482e-1,-2.310297266e-2,4.408353679e-1
6.197382417e0,-1.084022503e-2,-2.188036777e-2,-5.502282083e-2,6.019777226e-2
6.207415417e0,-6.483622827e-3,-2.237224579e-1,-9.377245791e-3,2.240127413e-1
6.217448417e0,-1.822736487e-2,-1.473685503e-1,3.347487748e-2,1.522179157e-1
6.227481417e0,-2.635660022e-2,-2.895691805e-2,2.763929963e-2,4.792811661e-2
6.237514417e0,-2.813798934e-2,5.226351321e-3,4.044644162e-2,4.954771268e-2
6.247547417e0,-1.083606482e-2,-4.676372930e-2,8.054868877e-2,9.376757404e-2
6.257580417e0,2.714513987e-2,-1.571634710e-1,9.500432760e-2,1.856422298e-1
6.267613417e0,6.793837249e-2,-2.753396630e-1,5.578448623e-2,2.890319384e-1
6.277646417e0,6.754130125e-2,-2.955562472e-1,8.119231090e-3,3.032840988e-1
6.287679417e0,3.099440970e-2,-1.435630023e-1,-1.563796960e-2,1.477008300e-1
6.297712417e0,-8.859796450e-3,9.100262076e-2,-7.808541879e-3,9.176571421e-2
6.307745417e0,-3.079668246e-2,2.627756000e-1,1.731228456e-2,2.651399004e-1
6.317778417e0,-3.613818437e-2,2.768197656e-1,2.118691802e-2,2.799714923e-1
6.327811417e0,-2.870278247e-2,1.493404061e-1,3.983429633e-5,1.520736933e-1
6.337844417e0,-3.743208945e-2,1.163315214e-2,-6.731519476e-3,3.977191099e-2
6.347877417e0,-5.123437569e-2,-2.212193981e-2,1.318498142e-2,5.734269969e-2
6.357910417e0,-4.394264147e-2,2.302663028e-2,2.883584797e-2,5.738194463e-2
6.367943417e0,-3.524233354e-3,3.905483335e-2,3.793106228e-2,5.455699510e-2
6.377976417e0,4.867985100e-2,-1.364246290e-2,3.292138875e-2,6.032961565e-2
6.388009417e0,7.285985351e-2,-9.881854057e-2,2.758285031e-2,1.258351137e-1
6.398042417e0,6.198297068e-2,-1.532871127e-1,2.471649088e-2,1.671817349e-1
6.408075417e0,2.290538698e-2,-1.309515834e-1,1.486448478e-2,1.337681833e-1
6.418108417e0,-1.095244568e-2,-5.570849031e-2,1.033764333e-2,5.770839479e-2
6.428141417e0,-3.145479038e-2,2.022888511e-2,1.753030904e-2,4.130282516e-2
6.438174417e0,-3.176824376e-2,6.772982329e-2,2.496984974e-2,7.886725347e-2
6.448207417e0,-2.301429026e-2,7.558639348e-2,1.152460277e-2,7.984846213e-2
6.458240417e0,-1.780221798e-2,5.766598135e-2,-5.353181157e-3,6.058829028e-2
6.468273417e0,-2.647068538e-2,5.401058495e-2,-1.016138215e-2,6.100077178e-2
6.478306417e0,-2.979271300e-2,5.604071543e-2,-2.464846475e-3,6.351569099e-2
6.488340417e0,-1.737840660e-2,4.272043705e-2,1.187151112e-2,4.762328773e-2
6.498373417e0,1.127986982e-2,1.084959134e-2,2.831679769e-2,3.235413616e-2
6.508406417e0,3.195691854e-2,-2.088330314e-2,4.255911708e-2,5.717198124e-2
6.518439417e0,3.680174053e-2,-3.990839422e-2,4.149278626e-2,6.832788118e-2
6.528472417e0,1.820187643e-2,-4.567141831e-2,3.941173851e-2,6.301168057e-2
6.538505417e0,-7.537043188e-3,-1.643230580e-2,2.452999726e-2,3.047209312e-2
6.548538417e0,-2.244533971e-4,-5.281034485e-2,-1.972210035e-2,5.637325735e-2
6.558571417e0,-1.158070471e-2,-8.207076043e-2,-6.138382014e-3,8.311078253e-2
6.568604417e0,-9.763801098e-2,1.093063578e-1,1.022724211e-1,1.787196384e-1
6.578637417e0,-1.251199692e-1,2.856800556e-1,1.663571149e-1,3.534724750e-1
6.588670417e0,-7.523990422e-2,1.005426943e-1,1.088503152e-1,1.661874475e-1
6.598703417e0,5.892232992e-3,-2.959071696e-1,-5.539854616e-2,3.011059122e-1
6.608736417e0,6.763493875e-4,-3.804709911e-1,-8.318535984e-2,3.894591591e-1
6.618769417e0,1.091802493e-3,-1.640780084e-2,-1.585837221e-3,1.652037653e-2
6.628802417e0,3.488696739e-2,2.796539664e-1,3.542434890e-3,2.818439112e-1
6.638835417e0,-7.423739135e-2,4.648680389e-1,-4.149667919e-2,4.725838108e-1
6.648868417e0,-2.085806429e-1,1.789776206e0,-8.842191845e-2,1.804057424e0
6.658901417e0,-1.411488652e-1,3.639395475e0,3.130315244e-2,3.642266096e0
6.668934417e0,1.222391501e-1,4.017245293e0,2.127165496e-1,4.024729864e0
6.678967417e0,3.915840685e-1,3.632662296e0,3.667881489e-1,3.672071212e0
6.689000417e0,3.685644567e-1,3.391397715e0,3.190980852e-1,3.426257697e0
6.699033417e0,2.014164478e-1,2.767417431e0,3.077080250e-1,2.791747132e0
6.709066417e0,-1.411242783e-1,1.732242227e0,5.627459288e-1,1.826817499e0
6.719099417e0,-4.678280950e-1,9.253597856e-1,8.636873960e-1,1.349485004e0
6.729131542e0,-7.320931554e-1,3.684657216e-1,1.068283558e0,1.346460967e0
6.739164542e0,-7.639306784e-1,-1.292319596e-1,5.925835371e-1,9.754210522e-1
6.749197542e0,1.932799667e-1,9.188700914e-1,-1.936846524e-1,9.587456050e-1
6.759230542e0,6.404119134e-1,1.075640559e0,5.861683562e-2,1.253222233e0
6.769263542e0,8.768815398e-1,1.431699634e0,6.471909285e-1,1.799316863e0
6.779296542e0,1.176797986e0,2.564579487e0,8.938425183e-1,2.959877682e0
6.789329542e0,1.103001237e0,3.504403591e0,1.134095788e0,3.844948571e0
6.799362542e0,9.344152212e-1,4.321504116e0,1.362331629e0,4.626497282e0
6.809395542e0,7.874668837e-1,4.273686409e0,1.426765919e0,4.573856207e0
6.819428542e0,6.645752788e-1,3.728607655e0,1.432515383e0,4.049231491e0
6.829461542e0,2.480565608e-1,3.035887718e0,1.100693703e0,3.238776454e0
6.839494542e0,-2.676294148e-1,2.368470192e0,6.361595988e-1,2.466977014e0
6.849527542e0,-7.406890988e-1,1.911080241e0,3.369566798e-1,2.077110453e0
6.859560542e0,-1.138454676e0,1.797690511e0,4.247710854e-2,2.128279710e0
6.869593542e0,-1.305490851e0,2.115017176e0,-2.832250595e-1,2.501563601e0
6.879626542e0,-1.103872061e0,2.499539614e0,-3.702499568e-1,2.757411257e0
6.889659542e0,-8.797653317e-1,3.136316776e0,-2.835683823e-1,3.269691268e0
6.899692542e0,-4.994385242e-1,4.539249897e0,-3.126266897e-1,4.577331528e0
6.909725542e0,-3.715837896e-1,6.511023521e0,-8.923473209e-2,6.522228503e0
6.919758542e0,-6.288505197e-1,8.299229622e0,2.206048816e-1,8.325943298e0
6.929792542e0,-9.196003079e-1,9.711918831e0,5.989227891e-1,9.773727058e0
6.939825542e0,-1.122696996e0,1.048552990e1,7.855507731e-1,1.057468089e1
6.949858542e0,-1.197694898e0,1.044696522e1,8.345752358e-1,1.054846298e1
6.959891542e0,-1.105356932e0,9.600616455e0,5.037959814e-1,9.677161808e0
6.969924542e0,-6.125575900e-1,8.457789421e0,7.570528984e-2,8.480280655e0
6.979957542e0,1.854913831e-1,7.192150116e0,-2.491012961e-1,7.198852811e0
6.989990542e0,1.067081451e0,5.754440308e0,-4.796416163e-1,5.872163329e0
7.000023542e0,1.749085307e0,4.244644642e0,-6.616220474e-1,4.638324189e0
7.010056542e0,2.107559681e0,3.079986811e0,-8.420811296e-1,3.825862934e0
7.020089542e0,2.150049686e0,2.635861635e0,-8.542725444e-1,3.507172906e0
7.030122542e0,1.957325459e0,2.655472755e0,-7.670381069e-1,3.386887356e0
7.040155542e0,1.586830497e0,2.746966600e0,-8.219948411e-1,3.277122526e0
7.050188542e0,1.250707507e0,2.757092953e0,-1.096518159e0,3.219966287e0
7.060221542e0,9.842092395e-1,2.523166418e0,-1.439523697e0,3.067126517e0
7.070254542e0,7.768468261e-1,2.462817907e0,-1.730777144e0,3.108786348e0
7.080287542e0,7.993044257e-1,2.342546701e0,-1.827074170e0,3.076461057e0
7.090320542e0,8.466624022e-1,2.173762560e0,-1.746178508e0,2.913969847e0
7.100353542e0,8.250449896e-1,2.085624933e0,-1.545173764e0,2.723617550e0
7.110386542e0,8.625592589e-1,2.294699430e0,-1.237478375e0,2.746089343e0
7.120419542e0,1.007977009e0,2.594442129e0,-8.032283187e-1,2.896950697e0
7.130452542e0,1.177996159e0,2.745524406e0,-3.444200456e-1,3.007358373e0
7.140485542e0,1.362612247e0,2.850922108e0,6.995342672e-2,3.160595274e0
7.150518542e0,1.587334156e0,3.115629196e0,3.024252355e-1,3.509734468e0
7.160551542e0,1.794480681e0,3.670279026e0,2.817907929e-1,4.095181937e0
7.170584542e0,1.993351340e0,4.317443848e0,3.420395032e-2,4.755516886e0
7.180617542e0,2.216503859e0,4.872122765e0,-2.421823740e-1,5.358089388e0
7.190650542e0,2.412892342e0,5.630537510e0,-5.384096503e-1,6.149381030e0
7.200683542e0,2.613569021e0,6.459893703e0,-8.350346684e-1,7.018422372e0
7.210716542e0,1.856735826e0,2.422554731e0,-5.718293786e-1,3.105354761e0
7.220749542e0,1.070238471e0,-6.190493703e-1,-2.347011119e-1,1.258458231e0
7.230782542e0,9.621653557e-1,-7.736028433e-1,-2.687844932e-1,1.263514398e0
7.240815542e0,1.108163357e0,-1.362335384e-1,-3.531909883e-1,1.171037778e0
7.250848542e0,1.355110765e0,7.210673094e-1,-5.306929350e-1,1.624160780e0
7.260881542e0,1.660054922e0,1.362780571e0,-7.890347242e-1,2.288127843e0
7.270914542e0,1.954775214e0,1.685948968e0,-1.045132518e0,2.784936631e0
7.280947542e0,2.165428638e0,1.683515668e0,-1.252358079e0,3.015245753e0
7.290980542e0,2.285976171e0,1.490677953e0,-1.402027249e0,3.068140842e0
7.301013542e0,2.312811375e0,1.274369121e0,-1.520299315e0,3.047035136e0
7.311046542e0,2.243848085e0,1.098951817e0,-1.631513953e0,2.984021968e0
7.321079542e0,2.073462009e0,9.199465513e-1,-1.733258128e0,2.854773214e0
7.331112542e0,1.802518129e0,8.125375509e-1,-1.818548203e0,2.686336994e0
7.341145542e0,1.658368111e0,9.549764395e-1,-1.919577122e0,2.710524141e0
7.351178542e0,1.801741958e0,9.045499563e-1,-1.773527503e0,2.685122811e0
7.361211542e0,2.007081747e0,9.107905626e-1,-1.542843103e0,2.690405440e0
7.371244542e0,2.180768251e0,1.147860408e0,-1.383863568e0,2.826377904e0
7.381277542e0,2.215031385e0,1.526458859e0,-1.311294079e0,2.992646462e0
7.391310542e0,2.064254045e0,1.933886290e0,-1.247400403e0,3.091450907e0
7.401343542e0,1.711895704e0,2.258793592e0,-1.101045012e0,3.040564999e0
7.411376542e0,1.243495345e0,2.386472702e0,-8.210757971e-1,2.813485044e0
7.421409542e0,8.080142736e-1,1.982580543e0,-4.457386136e-1,2.186823172e0
7.431442542e0,3.939064443e-1,1.159564734e0,-3.627908826e-1,1.277250908e0
7.441475542e0,-5.144624040e-2,8.319983482e-1,-4.557975233e-1,9.500628134e-1
7.451508542e0,-4.604775012e-1,7.894008756e-1,-5.097949505e-1,1.046462691e0
7.461541542e0,-6.769804955e-1,9.539091587e-1,-4.174167812e-1,1.241967006e0
7.471574542e0,-6.868022680e-1,1.219727278e0,-2.776916325e-1,1.427075552e0
7.481607542e0,-5.157858133e-1,1.494532466e0,-2.133949250e-1,1.595368199e0
7.491640542e0,-2.036974579e-1,1.639692903e0,-2.782700062e-1,1.675565476e0
7.501674542e0,1.451691985e-1,1.460529208e0,-4.541595578e-1,1.536385553e0
7.511706542e0,5.241767764e-1,9.720830917e-1,-6.364720464e-1,1.274677801e0
7.521740542e0,8.816177249e-1,4.670547843e-1,-6.819236875e-1,1.208474203e0
7.531773542e0,1.089908481e0,1.413071156e-1,-5.437378883e-1,1.226180692e0
7.541806542e0,1.133149147e0,3.311646357e-2,-2.429575473e-1,1.159375720e0
7.551839542e0,1.065425038e0,8.608166873e-2,1.145742238e-1,1.075019916e0
7.561872542e0,9.338606000e-1,2.359545380e-1,4.076156616e-1,1.045906636e0
7.571905542e0,7.947841883e-1,4.186353087e-1,5.569734573e-1,1.056956413e0
7.581938542e0,6.693304181e-1,5.687662363e-1,5.197563171e-1,1.020610048e0
7.591971542e0,6.199284196e-1,6.083606482e-1,3.237650394e-1,9.269507670e-1
7.602004542e0,6.398480535e-1,6.063947082e-1,8.388375491e-2,8.855261475e-1
7.612037542e0,6.220646501e-1,6.107438207e-1,-1.269509792e-1,8.809591333e-1
7.622070542e0,4.874493182e-1,6.470860839e-1,-2.959943414e-1,8.625195000e-1
7.632103542e0,2.866720557e-1,7.018104196e-1,-4.054988623e-1,8.597372039e-1
7.642136542e0,1.329868883e-1,7.977329493e-1,-4.651675224e-1,9.329759883e-1
7.652169542e0,9.730020911e-2,7.254261374e-1,-4.714251161e-1,8.706044174e-1
7.662202542e0,1.139950380e-1,5.690570474e-1,-4.442286491e-1,7.308624252e-1
7.672235542e0,1.513837576e-1,5.425101519e-1,-3.395383656e-1,6.576629902e-1
7.682268542e0,2.234779149e-1,6.064782143e-1,-1.479580104e-1,6.630609140e-1
7.692301542e0,3.825659752e-1,6.960247755e-1,4.987964779e-2,7.957984624e-1
7.702334542e0,6.395594478e-1,6.925250888e-1,2.070905715e-1,9.651496209e-1
7.712367542e0,8.299813271e-1,8.118415475e-1,1.292771250e-1,1.168190171e0
7.722400542e0,9.911074042e-1,8.911869526e-1,-6.621859968e-3,1.332873557e0
7.732434042e0,1.038369417e0,8.414016366e-1,-1.421116292e-1,1.344010222e0
7.742467042e0,9.498989582e-1,8.966601491e-1,-2.469871789e-1,1.329402167e0
7.752500042e0,7.704995275e-1,9.710505605e-1,-2.979635596e-1,1.274908230e0
7.762533042e0,5.575702190e-1,1.023107171e0,-2.883372903e-1,1.200321301e0
7.772566042e0,3.727044463e-1,1.011450052e0,-2.990377247e-1,1.118643542e0
7.782599042e0,2.439906895e-1,8.815956116e-1,-3.705385327e-1,9.869351970e-1
7.792632042e0,1.621532440e-1,6.234979033e-1,-4.568184614e-1,7.897635195e-1
7.802665042e0,1.056920961e-1,3.115956783e-1,-5.082893372e-1,6.054921438e-1
7.812698042e0,7.500205189e-2,4.594394937e-2,-4.919577837e-1,4.997585569e-1
7.822731042e0,4.306968302e-2,-1.664093286e-1,-4.101547897e-1,4.447179035e-1
7.832764042e0,2.723002573e-3,-2.844278812e-1,-3.323877752e-1,4.374794480e-1
7.842797042e0,2.824735362e-3,-3.349895775e-1,-2.874290943e-1,4.414085188e-1
7.852830042e0,4.926019907e-2,-3.087688684e-1,-2.529252172e-1,4.021640795e-1
7.862863042e0,1.644475162e-1,-2.425142229e-1,-2.124792635e-1,3.619441550e-1
7.872896042e0,2.766630948e-1,-1.863205880e-1,-1.376377791e-1,3.608351254e-1
7.882929042e0,3.486427367e-1,8.454392850e-2,-3.839881346e-2,3.607962064e-1
7.892962042e0,3.339085281e-1,2.880702317e-1,1.633601785e-1,4.702827994e-1
7.902995042e0,1.554785967e-1,1.725012958e-1,2.798508406e-1,3.636575093e-1
7.913028042e0,5.486756936e-2,-6.375358254e-2,2.778279185e-1,2.902814527e-1
7.923061042e0,1.329162903e-2,-3.694594502e-1,1.946525872e-1,4.178116591e-1
7.933094042e0,-9.861121327e-2,-6.121851802e-1,1.600989103e-1,6.404112174e-1
7.943127042e0,-2.597053051e-1,-8.358350992e-1,2.150646895e-1,9.012879558e-1