"Time (s)","Gyroscope x (rad/s)","Gyroscope y (rad/s)","Gyroscope z (rad/s)","Absolute (rad/s)"
1.176375000e-2,4.313136637e-1,-1.875909269e-1,6.492102891e-2,4.748016137e-1
2.179575000e-2,5.213261247e-1,-2.764236033e-1,7.316165417e-2,5.945952946e-1
3.182875000e-2,5.654674768e-1,-3.515204191e-1,9.150813520e-2,6.720816998e-1
4.186075000e-2,4.968698025e-1,-3.789057136e-1,8.180890232e-2,6.301919048e-1
5.189375000e-2,3.975267112e-1,-3.455703259e-1,5.067897588e-2,5.291641474e-1
6.192675000e-2,3.270051479e-1,-2.868667841e-1,3.033322468e-2,4.360562155e-1
7.195875000e-2,3.035055399e-1,-2.436455786e-1,2.549371496e-2,3.900368063e-1
8.199175000e-2,2.937269211e-1,-2.090111673e-1,4.904671386e-2,3.638224187e-1
9.202475000e-2,2.875372469e-1,-1.717656106e-1,6.337107718e-2,3.408767912e-1
1.020567500e-1,2.558435202e-1,-1.099882573e-1,7.865016907e-2,2.893772151e-1
1.120897500e-1,1.931468844e-1,-4.134701937e-2,1.012809053e-1,2.219754868e-1
1.221217500e-1,1.244916469e-1,1.254502917e-3,1.076908633e-1,1.646118646e-1
1.321547500e-1,5.260300264e-2,9.081751108e-3,1.150379777e-1,1.268199133e-1
1.421877500e-1,-1.106864959e-2,-9.607514367e-3,1.262205839e-1,1.270687024e-1
1.522197500e-1,-6.835971028e-2,-3.528976068e-2,1.501360238e-1,1.686986746e-1
1.622527500e-1,-1.202234402e-1,-5.541153997e-2,1.713885814e-1,2.165598305e-1
1.722857500e-1,-1.739944071e-1,-7.597522438e-2,1.984300613e-1,2.746284356e-1
1.823177500e-1,-2.177919596e-1,-1.017511636e-1,2.317483425e-1,3.339070698e-1
1.923507500e-1,-2.516062260e-1,-1.224430278e-1,2.435176820e-1,3.709431889e-1
2.023827500e-1,-2.742582858e-1,-1.339369714e-1,2.571080625e-1,3.990755260e-1
2.124157500e-1,-2.817899883e-1,-1.799210459e-1,2.870542407e-1,4.406555541e-1
2.224487500e-1,-2.676264942e-1,-2.372591645e-1,2.809369564e-1,4.547982245e-1
2.324807500e-1,-2.580513358e-1,-2.898450196e-1,1.751069129e-1,4.257499950e-1
2.425137500e-1,-2.399618179e-1,-3.469474316e-1,1.039941236e-1,4.344755138e-1
2.525467500e-1,-2.214214206e-1,-3.694790602e-1,7.136839442e-3,4.308052412e-1
2.625787500e-1,-2.228621840e-1,-3.482917547e-1,-6.188164279e-2,4.180957273e-1
2.726117500e-1,-2.677041590e-1,-2.910647094e-1,-1.527484357e-1,4.239295536e-1
2.826437500e-1,-3.463163972e-1,-2.258694321e-1,-1.748540103e-1,4.489164424e-1
2.926767500e-1,-4.036929309e-1,-2.290154248e-1,-1.246446148e-1,4.805749965e-1
3.027097500e-1,-4.014428258e-1,-2.360648215e-1,2.296507172e-2,4.662728137e-1
3.127417500e-1,-3.168066442e-1,-2.832011580e-1,1.627618670e-1,4.550393072e-1
3.227747500e-1,-1.143350378e-1,-3.805239797e-1,2.274598926e-1,4.578307577e-1
3.328077500e-1,1.850029677e-1,-5.352785587e-1,2.252164185e-1,6.094847567e-1
3.428397500e-1,5.507943034e-1,-5.326979756e-1,3.337314725e-1,8.357740087e-1
3.528727500e-1,9.831289053e-1,-5.193842649e-1,3.126985729e-1,1.155025046e0
3.629047500e-1,1.409397125e0,-3.646388948e-1,2.407221198e-1,1.475570710e0
3.729377500e-1,1.728117108e0,-1.458635479e-1,1.618457288e-1,1.741797622e0
3.829707500e-1,1.941933870e0,2.212359384e-2,2.968475968e-2,1.942286744e0
3.930027500e-1,2.139653683e0,1.239525527e-1,-6.012713164e-2,2.144084278e0
4.030357500e-1,2.333093166e0,2.051877528e-1,-1.424742043e-1,2.346428059e0
4.130687500e-1,2.481689692e0,3.178065121e-1,-1.470199823e-1,2.506272048e0
4.231007500e-1,2.568243027e0,3.775159121e-1,-1.390299648e-1,2.599561471e0
4.331337500e-1,2.562376976e0,3.801924586e-1,-1.773371547e-1,2.596491968e0
4.431657500e-1,2.482682943e0,3.441082239e-1,-2.262152135e-1,2.516604536e0
4.531987500e-1,2.321529627e0,2.627793252e-1,-2.756327987e-1,2.352557379e0
4.632317500e-1,2.068112850e0,1.755466759e-1,-3.254970312e-1,2.100917827e0
4.732637500e-1,1.703060746e0,1.244552284e-1,-2.812187672e-1,1.730603653e0
4.832967500e-1,1.216811538e0,1.255359352e-1,-2.758303881e-1,1.253982453e0
4.933297500e-1,6.142138243e-1,1.809475273e-1,-3.535326421e-1,7.314273434e-1
5.033617500e-1,-8.772942424e-2,2.461435795e-1,-4.460599124e-1,5.169647561e-1
5.133947500e-1,-8.607148528e-1,2.272949219e-1,-5.369325876e-1,1.039610332e0
5.234267500e-1,-1.645041347e0,2.221992314e-1,-4.317070842e-1,1.715198104e0
5.334597500e-1,-2.440371752e0,1.672753096e-1,-1.324159950e-1,2.449679430e0
5.434927500e-1,-3.262054205e0,9.838917851e-2,4.271826148e-2,3.263817231e0
5.535247500e-1,-4.119990349e0,2.858599275e-2,3.585555777e-2,4.120245533e0
5.635577500e-1,-4.984374523e0,1.216680557e-2,-2.710849233e-2,4.984463089e0
5.735907500e-1,-5.864425182e0,4.143010825e-2,-1.044029817e-1,5.865500759e0
5.836227500e-1,-6.754667759e0,8.514988422e-2,-1.147791967e-1,6.756179490e0
5.936557500e-1,-7.632185936e0,1.265825629e-1,-6.337512285e-2,7.633498655e0
6.036877500e-1,-8.465697289e0,1.402299255e-1,-7.468950935e-4,8.466858660e0
6.137207500e-1,-9.243223190e0,6.506108493e-2,2.763226256e-2,9.243493465e0
6.237537500e-1,-9.966302872e0,-1.483294964e-1,-7.340034097e-2,9.967676870e0
6.337857500e-1,-1.063831043e1,-3.812000155e-1,-1.947664469e-1,1.064691957e1
6.438187500e-1,-1.126849079e1,-6.117964983e-1,-2.853128612e-1,1.128869271e1
6.538517500e-1,-1.186473274e1,-7.971313596e-1,-3.287934661e-1,1.189602482e1
6.638837500e-1,-1.241722393e1,-8.679443002e-1,-1.693806499e-1,1.244867331e1
6.739167500e-1,-1.292630291e1,-8.413892388e-1,-1.235884130e-1,1.295424706e1
6.839497500e-1,-1.340443420e1,-8.602946997e-1,-1.200232431e-1,1.343254886e1
6.939817500e-1,-1.384116173e1,-9.218155146e-1,-2.103190422e-1,1.387341832e1
7.040147500e-1,-1.422973728e1,-9.516687989e-1,-3.752083778e-1,1.426645990e1
7.140467500e-1,-1.460424137e1,-9.472162724e-1,-5.258021355e-1,1.464436931e1
7.240797500e-1,-1.497028446e1,-9.122396708e-1,-5.448362827e-1,1.500794605e1
7.341127500e-1,-1.531296825e1,-9.017525911e-1,-5.015785694e-1,1.534769480e1
7.441447500e-1,-1.568159771e1,-8.566857576e-1,-5.146794319e-1,1.571341186e1
7.541777500e-1,-1.605134201e1,-8.697609305e-1,-3.008795679e-1,1.607770484e1
7.642107500e-1,-1.633991241e1,-1.000427008e0,-3.092605472e-1,1.637343073e1
7.742427500e-1,-1.668015099e1,-7.849788070e-1,-3.347136676e-1,1.670196581e1
7.842757500e-1,-1.701494980e1,-6.584274769e-1,-4.584406912e-1,1.703385486e1
7.943077500e-1,-1.729394913e1,-5.565087199e-1,-6.359962821e-1,1.731458546e1
8.043407500e-1,-1.748110199e1,-4.109184444e-1,-7.655287385e-1,1.750268022e1
8.143737500e-1,-1.758899117e1,-1.923002452e-1,-7.199058533e-1,1.760476793e1
8.244058750e-1,-1.758500481e1,1.893198816e-3,-6.134515405e-1,1.759570176e1
8.344388750e-1,-1.745964813e1,1.046139449e-1,-5.213293433e-1,1.746774288e1
8.444718750e-1,-1.724879646e1,5.531723425e-2,-4.060899019e-1,1.725366478e1
8.545038750e-1,-1.698792458e1,-1.243749931e-1,-2.773529291e-1,1.699064375e1
8.645368750e-1,-1.668379211e1,-4.022319019e-1,-9.565557539e-2,1.668891428e1
8.745688750e-1,-1.630450439e1,-6.677672267e-1,-1.192553435e-2,1.631817756e1
8.846018750e-1,-1.577247334e1,-8.250412941e-1,5.683020223e-3,1.579403813e1
8.946348750e-1,-1.509058189e1,-8.963525891e-1,3.266776353e-2,1.511721459e1
9.046668750e-1,-1.431069946e1,-8.889844418e-1,5.773796141e-2,1.433840110e1
9.146998750e-1,-1.343765736e1,-8.386538625e-1,-1.901087351e-2,1.346381584e1
9.247328750e-1,-1.246893787e1,-7.679671645e-1,-6.711368263e-2,1.249274548e1
9.347648750e-1,-1.140561295e1,-6.557325125e-1,-1.524629295e-1,1.142546440e1
9.447978750e-1,-1.034784126e1,-7.032600641e-1,-1.963765919e-1,1.037357013e1
9.548308750e-1,-9.492878914e0,-8.499338031e-1,-3.684748411e-1,9.537972072e0
9.648628750e-1,-8.651085854e0,-8.700491786e-1,-5.431787372e-1,8.711676943e0
9.748958750e-1,-7.733419418e0,-9.514546990e-1,-5.833663940e-1,7.813536862e0
9.849278750e-1,-6.854687214e0,-1.077954888e0,-6.341464520e-1,6.967845095e0
9.949608750e-1,-5.992167950e0,-1.195445657e0,-7.220494151e-1,6.152765428e0
1.004993875e0,-5.116699219e0,-8.742197156e-1,-8.644220233e-1,5.262328044e0
1.015025875e0,-4.281855106e0,-4.745902419e-1,-4.848930538e-1,4.335278575e0
1.025058875e0,-3.715305328e0,-4.151322544e-1,-5.305441618e-1,3.775884741e0
1.035091875e0,-3.260903835e0,-7.114006281e-1,-4.799958169e-1,3.371940192e0
1.045123875e0,-2.930797577e0,-9.947436452e-1,-4.654264450e-1,3.129810079e0
1.055156875e0,-2.585198879e0,-1.203797340e0,-4.070441127e-1,2.880636421e0
1.065188875e0,-2.180610657e0,-1.221407056e0,-2.184835076e-1,2.508910735e0
1.075221875e0,-1.746769547e0,-9.698004723e-1,-3.365651071e-1,2.026078202e0
1.085254875e0,-1.340630651e0,-6.622424126e-1,-7.273997068e-1,1.662818657e0
1.095286875e0,-1.080901384e0,-3.815529346e-1,-9.924679399e-1,1.516219989e0
1.105319875e0,-1.007697701e0,-2.256467193e-1,-9.369018674e-1,1.394330021e0
1.115352875e0,-1.124339819e0,-1.073513776e-1,-7.306764722e-1,1.345196065e0
1.125384875e0,-1.401917934e0,-8.782535791e-2,-3.734152615e-1,1.453453180e0
1.135417875e0,-1.813812613e0,-9.605222195e-2,4.331084713e-2,1.816870401e0
1.145450875e0,-2.305868626e0,-9.950234741e-2,2.680661976e-1,2.323529712e0
1.155482875e0,-2.805394888e0,-5.224392191e-2,4.018061459e-1,2.834504910e0
1.165515875e0,-3.268814802e0,-5.261356756e-2,4.414843321e-1,3.298912975e0
1.175547875e0,-3.731526136e0,-1.752809435e-1,5.453827381e-1,3.775242118e0
1.185580875e0,-4.167315006e0,-2.760930657e-1,5.191040039e-1,4.208587733e0
1.195613875e0,-4.584348202e0,-2.906255424e-1,5.566156507e-1,4.627151675e0
1.205645875e0,-5.037671089e0,-3.396519423e-1,5.689351559e-1,5.081060977e0
1.215678875e0,-5.508173943e0,-3.022261560e-1,4.750550687e-1,5.536876209e0
1.225711875e0,-5.990857601e0,-1.973106563e-1,3.432845175e-1,6.003927927e0
1.235743875e0,-6.477229118e0,-4.287685081e-2,2.417661250e-1,6.481881389e0
1.245776875e0,-6.967403412e0,1.121233851e-1,2.019361556e-1,6.971230893e0
1.255808875e0,-7.448247910e0,2.049233615e-1,2.852840424e-1,7.456525833e0
1.265841875e0,-7.946229458e0,2.771309912e-1,3.403635323e-1,7.958342259e0
1.275874875e0,-8.440725327e0,4.044414759e-1,3.926044106e-1,8.459524524e0
1.285906875e0,-8.909561157e0,5.332337618e-1,4.202954173e-1,8.935394031e0
1.295939875e0,-9.318923950e0,6.428865194e-1,3.018417358e-1,9.345948593e0
1.305972875e0,-9.669792175e0,6.340339184e-1,2.960344553e-1,9.695076901e0
1.316004875e0,-1.004517078e1,5.842970610e-1,3.423547745e-1,1.006797228e1
1.326037875e0,-1.044364071e1,5.246697068e-1,4.275642037e-1,1.046554923e1
1.336070875e0,-1.088079453e1,4.837614596e-1,5.915526748e-1,1.090759594e1
1.346102875e0,-1.134126949e1,4.498844445e-1,7.554792762e-1,1.137530389e1
1.356135875e0,-1.183762550e1,5.803659558e-1,8.242796659e-1,1.188047302e1
1.366167875e0,-1.239901924e1,5.481816530e-1,9.935589433e-1,1.245083695e1
1.376200875e0,-1.292998791e1,4.524150193e-1,9.641358256e-1,1.297377449e1
1.386233875e0,-1.333736801e1,2.470783740e-1,1.134667277e0,1.338782667e1
1.396265875e0,-1.365485764e1,-5.999876559e-2,8.556489944e-1,1.368177153e1
1.406298875e0,-1.403661156e1,-3.164395988e-1,5.652390122e-1,1.405155127e1
1.416331875e0,-1.437594128e1,-6.680164933e-1,2.584758699e-1,1.439377447e1
1.426363875e0,-1.479076004e1,-5.690078735e-1,1.359500550e-2,1.480170724e1
1.436396875e0,-1.530898380e1,-1.489005089e-1,-2.941324413e-1,1.531253311e1
1.446429875e0,-1.581882668e1,7.733235508e-2,-6.727311611e-1,1.583331377e1
1.456461875e0,-1.617955208e1,1.235283241e-1,-6.941077709e-1,1.619490507e1
1.466494875e0,-1.640000916e1,1.267563403e-1,-4.835290015e-1,1.640762529e1
1.476526875e0,-1.654914665e1,2.361995578e-1,-4.375455379e-1,1.655661473e1
1.486559875e0,-1.663782883e1,2.925994396e-1,-2.894809842e-1,1.664291927e1
1.496592875e0,-1.659131050e1,2.193711847e-1,-1.011289060e-1,1.659306888e1
1.506624875e0,-1.639248276e1,5.528903380e-2,6.826332211e-2,1.639271813e1
1.516657875e0,-1.604400635e1,-1.624601632e-1,2.049798965e-1,1.604613816e1
1.526690875e0,-1.555047798e1,-2.916045785e-1,2.958245873e-1,1.555602491e1
1.536722875e0,-1.494551659e1,-3.424824476e-1,3.886224031e-1,1.495449055e1
1.546755875e0,-1.422512913e1,-3.125314713e-1,4.100534022e-1,1.423446938e1
1.556787875e0,-1.342853451e1,-2.362975329e-1,4.512653053e-1,1.343819244e1
1.566820875e0,-1.256702423e1,-1.594203264e-1,4.664615691e-1,1.257668872e1
1.576853875e0,-1.160840797e1,-9.136760235e-2,4.465003312e-1,1.161735109e1
1.586885875e0,-1.054459476e1,-4.545151442e-2,4.394086003e-1,1.055384406e1
1.596918875e0,-9.389994621e0,-2.350709215e-2,4.469991922e-1,9.400657416e0
1.606951875e0,-8.187191010e0,-1.752590016e-2,4.382480383e-1,8.198930731e0
1.616983875e0,-6.947857857e0,-3.271323442e-2,4.534549713e-1,6.962716450e0
1.627016875e0,-5.695159912e0,-4.538987949e-2,4.418206811e-1,5.712452379e0
1.637049875e0,-4.424520016e0,-3.028112277e-2,4.427543581e-1,4.446720785e0
1.647081875e0,-3.202582121e0,2.592542395e-2,4.141677022e-1,3.229355857e0
1.657114875e0,-2.031236172e0,7.580287755e-2,3.645003140e-1,2.065073108e0
1.667146875e0,-9.138420820e-1,1.041964293e-1,3.172425330e-1,9.729373420e-1
1.677179875e0,1.337271333e-1,1.089199185e-1,2.598695159e-1,3.118952711e-1
1.687212875e0,1.148765683e0,1.239537299e-1,2.177002132e-1,1.175763796e0
1.697244875e0,2.104417324e0,1.333144605e-1,1.716573536e-1,2.115611322e0
1.707277875e0,2.979952335e0,1.320680976e-1,1.683385223e-1,2.987623765e0
1.717310875e0,3.755888700e0,1.427373588e-1,2.045188844e-1,3.764160180e0
1.727342875e0,4.436835289e0,1.822714508e-1,2.447904050e-1,4.447319710e0
1.737375875e0,5.021758556e0,2.571642697e-1,3.027410805e-1,5.037444255e0
1.747407875e0,5.480370045e0,3.741920888e-1,3.472994864e-1,5.504097790e0
1.757440875e0,5.785300255e0,5.097737908e-1,3.174851239e-1,5.816387638e0
1.767473875e0,5.943533421e0,5.564041734e-1,1.643594950e-1,5.971782746e0
1.777505875e0,5.992989540e0,5.287681222e-1,1.748134010e-2,6.016296614e0
1.787538875e0,5.931519508e0,4.559972286e-1,-1.018056422e-1,5.949892565e0
1.797571875e0,5.779738903e0,3.560554981e-1,-2.218079269e-1,5.794942283e0
1.807603875e0,5.562310696e0,2.454280406e-1,-2.884724438e-1,5.575190719e0
1.817636875e0,5.274312019e0,1.497122049e-1,-3.250277936e-1,5.286437750e0
1.827668958e0,4.870142460e0,7.656209916e-2,-4.342714548e-1,4.890065545e0
1.837701958e0,4.313611031e0,4.081933200e-2,-6.107000709e-1,4.356817751e0
1.847734958e0,3.709188700e0,3.325701877e-2,-7.123148441e-1,3.777112558e0
1.857766958e0,3.054512024e0,2.948598191e-2,-6.984826326e-1,3.133495032e0
1.867799958e0,2.340736151e0,2.952912822e-2,-5.582488179e-1,2.406565902e0
1.877832958e0,1.578628302e0,2.070426941e-2,-2.680430710e-1,1.601356634e0
1.887864958e0,7.996366024e-1,2.173196524e-3,8.597014099e-2,8.042476508e-1
1.897897958e0,-8.301849477e-3,-3.570869938e-2,2.023068666e-1,2.056018001e-1
1.907930958e0,-7.775561810e-1,-8.345385641e-2,2.028077990e-1,8.078918022e-1
1.917962958e0,-1.504481435e0,-1.335359961e-1,1.653294116e-1,1.519417673e0
1.927995958e0,-2.192709446e0,-1.949674040e-1,1.260944009e-1,2.204968662e0
1.938027958e0,-2.842877150e0,-2.542144656e-1,7.070699334e-2,2.855096314e0
1.948060958e0,-3.448428869e0,-2.639738917e-1,3.884360567e-2,3.458735709e0
1.958093958e0,-4.034485817e0,-2.357627302e-1,4.760595039e-2,4.041648946e0
1.968125958e0,-4.567481041e0,-1.701773256e-1,7.415766269e-2,4.571251770e0
1.978158958e0,-5.028850555e0,-1.338660568e-1,9.953492880e-2,5.031616562e0
1.988190958e0,-5.418264866e0,-1.220221892e-1,1.485812962e-1,5.421675015e0
1.998223958e0,-5.724389076e0,-1.477277130e-1,2.016381174e-1,5.729843951e0
2.008256958e0,-5.936658859e0,-2.050741017e-1,2.570094764e-1,5.945757115e0
2.018288958e0,-6.039968967e0,-2.726049125e-1,2.730854452e-1,6.052281737e0
2.028321958e0,-6.033817291e0,-3.169627786e-1,2.708342969e-1,6.048203677e0
2.038354958e0,-5.937431335e0,-3.353465199e-1,2.115067542e-1,5.950654019e0
2.048386958e0,-5.749252319e0,-3.377854526e-1,1.246879771e-1,5.760516325e0
2.058419958e0,-5.477547646e0,-3.291313946e-1,6.676553935e-2,5.487833208e0
2.068452958e0,-5.149621010e0,-3.098791242e-1,2.651905082e-2,5.159004252e0
2.078484958e0,-4.773005962e0,-2.845078111e-1,-9.275145829e-3,4.781486865e0
2.088517958e0,-4.346652031e0,-2.665179074e-1,-2.994260564e-2,4.354918166e0
2.098549958e0,-3.882409573e0,-2.557292879e-1,-5.203459412e-2,3.891170667e0
2.108582958e0,-3.373246908e0,-2.373846322e-1,-5.141913518e-2,3.381980203e0
2.118615958e0,-2.829129219e0,-2.060288340e-1,-5.692255870e-2,2.837192309e0
2.128647958e0,-2.248521805e0,-1.722935140e-1,-5.525169149e-2,2.255789908e0
2.138680958e0,-1.630752325e0,-1.407819986e-1,-5.801927298e-2,1.637845827e0
2.148713958e0,-9.893400073e-1,-1.151770353e-1,-5.085882917e-2,9.973194173e-1
2.158745958e0,-3.526620269e-1,-7.350883633e-2,-3.825249895e-2,3.622669015e-1
2.168778958e0,2.642957270e-1,-4.108299315e-2,-3.833745420e-2,2.702032643e-1
2.178810958e0,8.502957821e-1,-2.278812416e-2,-3.717843816e-2,8.514132087e-1
2.188843958e0,1.410045505e0,-2.363767102e-2,-1.651151106e-2,1.410340276e0
2.198876958e0,1.912414670e0,-2.396823838e-2,-1.387123019e-2,1.912615162e0
2.208908958e0,2.347853899e0,-2.646335401e-2,-2.907441743e-2,2.348183034e0
2.218941958e0,2.740559101e0,-2.357217250e-3,-4.669740051e-2,2.740957933e0
2.228974958e0,3.080049038e0,2.817139588e-2,-6.211710349e-2,3.080804154e0
2.239006958e0,3.372165918e0,5.642537773e-2,-6.039479747e-2,3.373178669e0
2.249039958e0,3.623918772e0,7.119100541e-2,-3.439569101e-2,3.624781164e0
2.259071958e0,3.832030058e0,8.561810851e-2,-1.023982279e-2,3.833000089e0
2.269104958e0,3.986004591e0,9.048236907e-2,1.088463701e-2,3.987046292e0
2.279137958e0,4.097837925e0,8.627054840e-2,2.787245065e-2,4.098840707e0
2.289169958e0,4.164906502e0,7.912821323e-2,3.087995760e-2,4.165772559e0
2.299202958e0,4.184230804e0,7.712586969e-2,3.207495064e-2,4.185064471e0
2.309235958e0,4.157771587e0,7.869686931e-2,3.911714628e-2,4.158700268e0
2.319267958e0,4.077734947e0,8.251790702e-2,4.424050823e-2,4.078809719e0
2.329300958e0,3.958040237e0,8.048910648e-2,4.960811138e-2,3.959169355e0
2.339332958e0,3.794675589e0,6.502407789e-2,5.761967972e-2,3.795670031e0
2.349365958e0,3.575230122e0,3.780124709e-2,6.041439995e-2,3.575940332e0
2.359398958e0,3.287604570e0,1.212593354e-2,4.818093777e-2,3.287979965e0
2.369430958e0,2.946540117e0,-9.656060487e-3,3.047677502e-2,2.946713548e0
2.379463958e0,2.553474665e0,-1.427416876e-2,3.065177239e-2,2.553698523e0
2.389496958e0,2.140832424e0,-7.524652872e-3,2.800245956e-2,2.141028778e0
2.399528958e0,1.709072351e0,-7.197416387e-3,1.806112379e-2,1.709182936e0
2.409561958e0,1.273591518e0,-2.153694071e-2,1.841612346e-2,1.273906727e0
2.419593958e0,8.324963450e-1,-3.868588060e-2,2.540370822e-2,8.337818121e-1
2.429626958e0,3.906347454e-1,-6.095549837e-2,2.200471610e-2,3.959738433e-1
2.439659958e0,-4.780265316e-2,-7.351040840e-2,1.511379890e-2,8.897921505e-2
2.449691958e0,-4.857690930e-1,-7.577037066e-2,1.269458421e-2,4.918067845e-1
2.459724958e0,-9.112701416e-1,-7.508204877e-2,3.640109207e-3,9.143652637e-1
2.469756958e0,-1.320759416e0,-7.247774303e-2,4.768066574e-4,1.322746644e0
2.479789958e0,-1.711049318e0,-6.119262427e-2,-7.565640844e-4,1.712143358e0
2.489822958e0,-2.076026917e0,-4.480912536e-2,2.552147256e-3,2.076512010e0
2.499854958e0,-2.387203693e0,-2.807813324e-2,2.961241873e-3,2.387370651e0
2.509887958e0,-2.643906116e0,-3.128058463e-2,1.352200657e-2,2.644125729e0
2.519920958e0,-2.837790966e0,-5.135608837e-2,1.571754180e-2,2.838299148e0
2.529952958e0,-2.971326590e0,-9.342045337e-2,7.235907018e-3,2.972803633e0
2.539985958e0,-3.041796446e0,-1.311281174e-1,-1.315329224e-2,3.044649932e0
2.550017958e0,-3.050506830e0,-1.525375396e-1,-2.050281875e-2,3.054387007e0
2.560050958e0,-3.003036022e0,-1.461963356e-1,-2.892316878e-2,3.006731659e0
2.570083958e0,-2.903259039e0,-1.205620766e-1,-1.437005773e-2,2.905796751e0
2.580115958e0,-2.747781992e0,-8.898952603e-2,5.275271833e-3,2.749227681e0
2.590148958e0,-2.539954662e0,-6.374195963e-2,3.393407911e-2,2.540980961e0
2.600181958e0,-2.288222790e0,-4.550564289e-2,5.066701025e-2,2.289235996e0
2.610213958e0,-2.001750708e0,-4.101981595e-2,5.883013085e-2,2.003035073e0
2.620246958e0,-1.689776778e0,-4.505851120e-2,5.005554110e-2,1.691118383e0
2.630278958e0,-1.360903025e0,-5.396785215e-2,1.858843118e-2,1.362099520e0
2.640311958e0,-1.036642075e0,-5.597363040e-2,-2.093901299e-2,1.038363270e0
2.650344958e0,-7.069040537e-1,-4.587838799e-2,-6.539782882e-2,7.114035730e-1
2.660376958e0,-3.687317669e-1,-3.228165209e-2,-9.341828525e-2,3.817488664e-1
2.670409958e0,-3.093616106e-2,-1.191992033e-2,-9.220894426e-2,9.798785620e-2
2.680442958e0,3.056919575e-1,1.212487370e-2,-6.060045213e-2,3.118765785e-1
2.690474958e0,6.271251440e-1,3.761931509e-2,-3.176267818e-2,6.290548679e-1
2.700507958e0,9.323065281e-1,4.164171591e-2,-8.274195716e-5,9.332360375e-1
2.710539958e0,1.219077229e0,2.600762807e-2,1.646108180e-2,1.219465725e0
2.720572958e0,1.480537176e0,3.494671080e-3,3.626538813e-2,1.480985389e0
2.730605958e0,1.706860781e0,-1.229521073e-2,4.393369332e-2,1.707470371e0
2.740637958e0,1.904508114e0,-1.857226342e-2,5.290269479e-2,1.905333246e0
2.750670958e0,2.079499483e0,-2.077363431e-2,5.599968508e-2,2.080357087e0
2.760703958e0,2.226719618e0,-1.617316343e-2,5.534321442e-2,2.227465982e0
2.770735958e0,2.347286701e0,-1.065589301e-2,3.475271910e-2,2.347568137e0
2.780768958e0,2.443701029e0,-1.192824077e-2,1.172919758e-2,2.443758289e0
2.790800958e0,2.509976149e0,-1.367687248e-2,4.774617963e-3,2.510017952e0
2.800833958e0,2.542562962e0,-8.073958568e-3,5.582314916e-3,2.542581909e0
2.810866958e0,2.530320406e0,2.064162865e-3,1.656119712e-2,2.530375445e0
2.820898958e0,2.480596781e0,2.460326441e-2,3.487579152e-2,2.480963932e0
2.830932125e0,2.373763561e0,5.126736686e-2,4.860225692e-2,2.374814512e0
2.840965125e0,2.225466251e0,6.130010262e-2,5.851825327e-2,2.227079281e0
2.850997125e0,2.000709534e0,5.655115843e-2,6.785316765e-2,2.002658414e0
2.861030125e0,1.684821248e0,4.686737061e-2,8.807054907e-2,1.687772381e0
2.871062125e0,1.357126236e0,4.587987065e-2,1.002776846e-1,1.361599132e0
2.881095125e0,1.035754442e0,5.748724192e-2,1.097398847e-1,1.043137043e0
2.891128125e0,7.237091660e-1,7.053300738e-2,1.125425994e-1,7.357959628e-1
2.901160125e0,4.234897494e-1,6.705144048e-2,1.160033718e-1,4.441804203e-1
2.911193125e0,1.376859844e-1,4.568089917e-2,1.100365594e-1,1.820775089e-1
2.921226125e0,-1.291038543e-1,1.437622309e-2,1.023456082e-1,1.653756466e-1
2.931258125e0,-3.803105056e-1,-1.988854073e-2,1.080165431e-1,3.958525083e-1
2.941291125e0,-6.101171374e-1,-4.230635986e-2,1.050937772e-1,6.205460913e-1
2.951323125e0,-8.165400624e-1,-5.506583303e-2,1.009791866e-1,8.246009433e-1
2.961356125e0,-1.006540179e0,-6.123575196e-2,1.006225273e-1,1.013409020e0
2.971389125e0,-1.169681668e0,-7.176136225e-2,1.054955795e-1,1.176619826e0
2.981421125e0,-1.314909101e0,-6.939798594e-2,1.143050864e-1,1.321691218e0
2.991454125e0,-1.428747773e0,-6.184259802e-2,1.144041568e-1,1.434654320e0
3.001486125e0,-1.512601137e0,-4.997997358e-2,9.921507537e-2,1.516675255e0
3.011519125e0,-1.559338331e0,-3.716004640e-2,7.693479955e-2,1.561677260e0
3.021552125e0,-1.576987863e0,-2.898343280e-2,6.175474823e-2,1.578462672e0
3.031584125e0,-1.565166593e0,-2.335590683e-2,3.713861853e-2,1.565781351e0
3.041617125e0,-1.526532054e0,-1.850689203e-2,2.101506665e-2,1.526788869e0
3.051650125e0,-1.456712008e0,-1.742484979e-2,-5.666578654e-4,1.456816330e0
3.061682125e0,-1.367515326e0,-7.813153788e-3,-1.639299467e-2,1.367635895e0
3.071715125e0,-1.252373338e0,4.493037704e-4,-3.220631182e-2,1.252787462e0
3.081748125e0,-1.118079066e0,1.279048622e-2,-3.998035938e-2,1.118866759e0
3.091780125e0,-9.701294899e-1,2.077996731e-2,-3.312112391e-2,9.709171144e-1
3.101813125e0,-8.161965609e-1,2.845046110e-2,-8.208613843e-3,8.167335159e-1
3.111845125e0,-6.596096158e-1,3.266784176e-2,1.459390484e-2,6.605793027e-1
3.121878125e0,-4.975239038e-1,3.348273039e-2,2.835209854e-2,4.994546722e-1
3.131911125e0,-3.268669248e-1,2.862885408e-2,3.629550710e-2,3.301196171e-1
3.141943125e0,-1.559284329e-1,1.397772226e-2,4.885204136e-2,1.639987039e-1
3.151976125e0,1.998374425e-2,1.695224084e-3,5.625669286e-2,5.972469598e-2
3.162008125e0,2.059235275e-1,-7.859931327e-3,5.542232469e-2,2.133961381e-1
3.172041125e0,3.943698704e-1,-1.485498995e-2,5.091758817e-2,3.979206783e-1
3.182074125e0,5.850222111e-1,-2.354338020e-2,4.622484744e-2,5.873176438e-1
3.192106125e0,7.636409998e-1,-3.616489843e-2,4.649835452e-2,7.659096379e-1
3.202139125e0,9.287346601e-1,-4.804069176e-2,4.617154971e-2,9.311217907e-1
3.212172125e0,1.076458931e0,-6.575123966e-2,4.712016881e-2,1.079494032e0
3.222204125e0,1.192087412e0,-7.359223068e-2,4.881235212e-2,1.195353864e0
3.232237125e0,1.280772567e0,-6.759532541e-2,5.112770200e-2,1.283573737e0
3.242269125e0,1.350117564e0,-4.295918718e-2,3.854720667e-2,1.351350738e0
3.252302125e0,1.395037413e0,-1.719070785e-2,3.330397606e-2,1.395540776e0
3.262335125e0,1.419745207e0,3.793449840e-3,3.390586749e-2,1.420155080e0
3.272367125e0,1.425057650e0,5.911462009e-3,3.553971648e-2,1.425513003e0
3.282400125e0,1.408022761e0,4.840141628e-4,2.391254529e-2,1.408225884e0
3.292433125e0,1.370017767e0,-2.573028440e-3,1.310357451e-2,1.370082846e0
3.302465125e0,1.303904772e0,-7.634862326e-3,6.289678626e-3,1.303942294e0
3.312498125e0,1.222762227e0,4.116124474e-4,9.438600391e-3,1.222798724e0
3.322530125e0,1.137023449e0,1.568873413e-2,1.035335753e-2,1.137178813e0
3.332563125e0,1.052273512e0,3.880417347e-2,1.726585813e-2,1.053130295e0
3.342596125e0,9.636241198e-1,5.732982978e-2,2.176501974e-2,9.655733373e-1
3.352628125e0,8.698560596e-1,7.017319649e-2,1.835777052e-2,8.728750481e-1
3.362661125e0,7.609900832e-1,5.763607472e-2,3.246502951e-3,7.631764957e-1
3.372694125e0,6.497274637e-1,2.748243511e-2,-1.351516694e-2,6.504488612e-1
3.382726125e0,5.455937982e-1,-4.520415794e-3,-2.646937966e-2,5.462542035e-1
3.392759125e0,4.387198091e-1,-3.600830212e-2,-2.696233056e-2,4.410199950e-1
3.402791125e0,3.250747025e-1,-5.553198978e-2,-2.883263864e-2,3.310418178e-1
3.412824125e0,2.127457708e-1,-7.275225222e-2,-2.466478944e-2,2.261901966e-1
3.422857125e0,9.731011838e-2,-7.798326761e-2,-1.910918206e-2,1.261578773e-1
3.432889125e0,-1.843778603e-2,-8.008450270e-2,-1.311547309e-2,8.321955996e-2
3.442922125e0,-1.309242845e-1,-7.469442487e-2,-5.521479994e-3,1.508340549e-1
3.452954125e0,-2.438870519e-1,-5.819667131e-2,1.006813254e-2,2.509364739e-1
3.462987125e0,-3.548379242e-1,-4.086312279e-2,3.569497168e-2,3.589622240e-1
3.473020125e0,-4.547823668e-1,-2.813454345e-2,5.461113527e-2,4.589127692e-1
3.483052125e0,-5.425245166e-1,-2.635102347e-2,6.440193206e-2,5.469687709e-1
3.493085125e0,-6.142394543e-1,-4.661448300e-2,6.615961343e-2,6.195483126e-1
3.503118125e0,-6.753046513e-1,-6.543643773e-2,5.475439131e-2,6.806734480e-1
3.513150125e0,-7.221544385e-1,-8.397710323e-2,3.753332794e-2,7.279889681e-1
3.523183125e0,-7.482453585e-1,-9.325796366e-2,2.257061563e-2,7.543723198e-1
3.533216125e0,-7.519194484e-1,-9.003527462e-2,1.765095815e-2,7.574963788e-1
3.543248125e0,-7.390552759e-1,-8.485252410e-2,1.297896728e-2,7.440235919e-1
3.553281125e0,-7.089152336e-1,-7.472877949e-2,1.005721372e-2,7.129139825e-1
3.563313125e0,-6.571380496e-1,-6.246131659e-2,7.860641927e-3,6.601466670e-1
3.573346125e0,-5.893853903e-1,-3.979701921e-2,-1.355759567e-3,5.907290234e-1
3.583379125e0,-5.038204789e-1,-1.290546544e-2,-9.622737765e-3,5.040775963e-1
3.593411125e0,-4.020978212e-1,1.599941961e-2,-9.229121730e-3,4.025218205e-1
3.603444125e0,-2.907938063e-1,3.302051499e-2,-1.580471918e-2,2.930890331e-1
3.613476125e0,-1.656934172e-1,3.710899875e-2,-2.213265561e-2,1.712344613e-1
3.623509125e0,-4.219440743e-2,2.783947811e-2,-3.173175082e-2,5.968507828e-2
3.633542125e0,7.481210679e-2,1.099684648e-2,-3.947622329e-2,8.530037608e-2
3.643574125e0,1.825964153e-1,7.915971801e-4,-3.879552335e-2,1.866739675e-1
3.653607125e0,2.833888233e-1,4.149043933e-3,-2.134942450e-2,2.842221625e-1
3.663640125e0,3.697590828e-1,1.212209277e-2,-1.348257530e-3,3.699601901e-1
3.673672125e0,4.478349686e-1,1.985165104e-2,2.329024300e-2,4.488793630e-1
3.683705125e0,5.190823078e-1,1.689338684e-2,5.580285192e-2,5.223464244e-1
3.693737125e0,5.734001994e-1,1.200355683e-2,7.617443055e-2,5.785623717e-1
3.703770125e0,6.119361520e-1,7.714672945e-3,7.683229446e-2,6.167889199e-1
3.713803125e0,6.299787760e-1,-5.666911602e-3,7.548499852e-2,6.345103286e-1
3.723835125e0,6.413953304e-1,-1.201067306e-2,6.803455204e-2,6.451053607e-1
3.733868125e0,6.318463087e-1,-1.830984838e-2,5.881414935e-2,6.348418012e-1
3.743901125e0,6.039442420e-1,-2.013506740e-2,4.820730165e-2,6.061996472e-1
3.753933125e0,5.592031479e-1,-1.671610028e-2,3.342755884e-2,5.604507028e-1
3.763966125e0,5.092787743e-1,-1.058138348e-2,6.064907648e-3,5.094247920e-1
3.773998125e0,4.515805542e-1,2.597535029e-3,-1.002484560e-2,4.516992824e-1
3.784031125e0,3.866603673e-1,1.187979244e-2,-2.480008639e-2,3.876369608e-1
3.794064125e0,3.240869939e-1,2.149753273e-2,-3.080098517e-2,3.262563781e-1
3.804096125e0,2.539028227e-1,3.037019819e-2,-2.494839393e-2,2.569268664e-1
3.814129125e0,1.738495231e-1,3.143865988e-2,-1.143391710e-2,1.770389236e-1
3.824162125e0,9.841687232e-2,3.306557238e-2,-5.346692633e-4,1.038243647e-1
3.834194458e0,1.799819805e-2,3.966834769e-2,1.166740246e-2,4.509591136e-2
3.844227458e0,-5.564656854e-2,4.602966458e-2,1.145753078e-2,7.312007674e-2
3.854259458e0,-1.229481027e-1,3.524119779e-2,5.769285373e-3,1.280291475e-1
3.864292458e0,-1.946086884e-1,2.981140651e-2,1.036312082e-3,1.968815265e-1
3.874325458e0,-2.525409460e-1,2.944176085e-2,-4.800537601e-3,2.542966611e-1
3.884357458e0,-3.073209822e-1,2.818444557e-2,-3.427721560e-2,3.105084163e-1
3.894390458e0,-3.569705486e-1,1.420231722e-2,-5.597558618e-2,3.616115936e-1
3.904423458e0,-4.058509767e-1,-1.110340701e-3,-6.464173645e-2,4.109681280e-1
3.914455458e0,-4.560047090e-1,-5.145295989e-3,-5.519071221e-2,4.593612777e-1
3.924488458e0,-5.089535713e-1,-6.229810417e-3,-4.751417786e-2,5.112046023e-1
3.934520458e0,-5.662371516e-1,-1.077396236e-2,-4.057371244e-2,5.677911731e-1
3.944553458e0,-6.289033890e-1,-1.104042027e-2,-2.968484722e-2,6.297003682e-1
3.954586458e0,-6.946294308e-1,-1.221540663e-2,-2.149722539e-2,6.950693440e-1
3.964618458e0,-7.604154944e-1,-1.519551873e-2,-2.445681021e-2,7.609604218e-1
3.974651458e0,-8.263607025e-1,-3.030949086e-2,-2.741531655e-2,8.273707002e-1
3.984684458e0,-8.844994903e-1,-4.855577648e-2,-4.442356154e-2,8.869444540e-1
3.994716458e0,-9.522127509e-1,-6.323511899e-2,-6.295116991e-2,9.563841556e-1
4.004749458e0,-1.003298998e0,-6.024420261e-2,-7.767262310e-2,1.008102812e0
4.014781458e0,-1.034100890e0,-5.195058510e-2,-7.917704433e-2,1.038427907e0
4.024814458e0,-1.061093450e0,-4.084216803e-2,-8.246418834e-2,1.065076398e0
4.034847458e0,-1.058961391e0,-2.897938341e-2,-8.163408190e-2,1.062498544e0
4.044879458e0,-1.031972289e0,-2.605541423e-2,-5.921503156e-2,1.033998119e0
4.054912458e0,-9.913656116e-1,-3.032659367e-2,-4.718846083e-2,9.929512722e-1
4.064945458e0,-9.479823709e-1,-5.070095137e-2,-5.353077129e-2,9.508452584e-1
4.074977458e0,-8.873746395e-1,-6.673824042e-2,-6.161985546e-2,8.920116312e-1
4.085010458e0,-8.180155754e-1,-8.920266479e-2,-7.787871361e-2,8.265420080e-1
4.095042458e0,-7.396494150e-1,-8.990813047e-2,-7.987422496e-2,7.493628099e-1
4.105075458e0,-6.521109939e-1,-7.868012041e-2,-7.779429853e-2,6.614312228e-1
4.115108458e0,-5.495918393e-1,-5.662035942e-2,-5.943340063e-2,5.556882076e-1
4.125140458e0,-4.285269976e-1,-3.980713710e-2,-2.127588727e-2,4.308975043e-1
4.135173458e0,-3.051140010e-1,-2.051865868e-2,3.256656975e-2,3.075323567e-1
4.145206458e0,-1.869462878e-1,2.125199651e-3,6.420889497e-2,1.976770426e-1
4.155238458e0,-9.586139768e-2,1.168275252e-2,8.012261242e-2,1.254811830e-1
4.165271458e0,-2.746956795e-2,-2.792662010e-3,7.794225216e-2,8.268839578e-2
4.175303458e0,1.563236304e-2,-3.712799773e-2,7.135839015e-2,8.194436426e-2
4.185336458e0,5.421882123e-2,-7.127083093e-2,5.803702772e-2,1.067122697e-1
4.195369458e0,1.043874472e-1,-1.072954088e-1,4.092302173e-2,1.551893605e-1
4.205401458e0,1.546232551e-1,-1.394405216e-1,2.422368713e-2,2.096158322e-1
4.215434458e0,2.059101462e-1,-1.594256759e-1,2.479014173e-2,2.615914478e-1
4.225467458e0,2.510980368e-1,-1.642018259e-1,2.731080726e-2,3.012612552e-1
4.235499458e0,2.930582762e-1,-1.444489062e-1,4.131823406e-2,3.293263369e-1
4.245532458e0,3.415959179e-1,-1.230686232e-1,7.931462675e-2,3.716510019e-1
4.255564458e0,3.744878173e-1,-9.042918682e-2,1.254621446e-1,4.051657844e-1
4.265597458e0,4.208611846e-1,-6.919973344e-2,1.660710573e-1,4.577033274e-1
4.275630458e0,4.700676203e-1,-5.451054126e-2,1.811261773e-1,5.066968116e-1
4.285662458e0,5.024057627e-1,-6.341371685e-2,2.189105898e-1,5.516835109e-1
4.295695458e0,5.415225029e-1,-6.118731946e-2,2.041888982e-1,5.819653043e-1
4.305728458e0,5.444138050e-1,-6.278213114e-2,2.340759784e-1,5.959190807e-1
4.315760458e0,5.672482848e-1,-8.172120154e-2,2.408979237e-1,6.216757845e-1
4.325793458e0,6.303675771e-1,1.230083220e-2,2.413088679e-1,6.750885590e-1
4.335825458e0,6.936203241e-1,-8.247441798e-2,2.293912172e-1,7.352084835e-1
4.345858458e0,7.134072781e-1,-9.327224642e-2,1.713997722e-1,7.396131004e-1
4.355891458e0,7.420421243e-1,-1.046673805e-1,7.573741674e-2,7.532051055e-1
4.365923458e0,7.668009400e-1,-1.180277914e-1,-2.406875230e-2,7.762045774e-1
4.375956458e0,8.115007877e-1,-1.261142194e-1,-1.022943184e-1,8.275883351e-1
4.385989458e0,8.727142215e-1,-1.408163458e-1,-1.473187804e-1,8.961931592e-1
4.396021458e0,9.239395857e-1,-1.330718696e-1,-1.528214067e-1,9.459000279e-1
4.406054458e0,9.456518888e-1,-8.842706680e-2,-1.232582033e-1,9.577418367e-1
4.416086458e0,1.006384134e0,2.605103888e-2,-1.685005128e-1,1.020725284e0
4.426119458e0,1.027285576e0,1.278887689e-1,6.058860943e-2,1.036987064e0
4.436152458e0,9.789147973e-1,2.454526871e-1,1.881079525e-1,1.026599145e0
4.446184458e0,9.516232014e-1,3.043748140e-1,2.483299971e-1,1.029513736e0
4.456217458e0,8.835818172e-1,2.406826615e-1,1.745497882e-1,9.322620875e-1
4.466250458e0,8.595944047e-1,2.059019208e-1,1.350476593e-1,8.941677761e-1
4.476282458e0,7.967390418e-1,1.382001042e-1,1.321599931e-1,8.193647743e-1
4.486315458e0,7.702972293e-1,1.564593464e-1,-5.037650838e-2,7.876389662e-1
4.496347458e0,7.562932968e-1,-1.552254241e-2,-1.830741018e-1,7.782908370e-1
4.506380458e0,6.343055964e-1,-1.933368742e-1,-2.244162560e-1,7.000609919e-1
4.516413458e0,5.388291478e-1,-2.605236471e-1,-2.297505736e-1,6.410887203e-1
4.526445458e0,4.716540575e-1,-2.444070429e-1,-1.804058999e-1,5.610157228e-1
4.536478458e0,3.737879395e-1,-2.162257284e-1,-1.023284048e-1,4.437815812e-1
4.546511458e0,2.745221257e-1,-2.224229276e-1,-5.242072511e-3,3.533579426e-1
4.556543458e0,2.802503109e-1,-2.771332860e-1,-4.889980331e-2,3.971577592e-1
4.566576458e0,2.477595210e-1,-2.494061589e-1,-1.027398482e-1,3.662563157e-1
4.576608458e0,2.008237094e-1,-2.593602538e-1,-1.719940156e-1,3.703779757e-1
4.586641458e0,2.293037027e-1,-2.676703632e-1,-1.505865008e-1,3.832804530e-1
4.596674458e0,2.189323008e-1,-2.420110554e-1,-1.178860813e-1,3.469839066e-1
4.606706458e0,1.901164353e-1,-1.756463200e-1,-1.455067545e-1,2.969311440e-1
4.616739458e0,1.903713048e-1,-8.450334519e-2,-1.397412717e-1,2.508180058e-1
4.626772458e0,2.169749439e-1,-1.057937928e-2,-1.280604005e-1,2.521696169e-1
4.636804458e0,2.496346235e-1,4.987278208e-2,-1.267669052e-1,2.843845775e-1
4.646837458e0,2.912347019e-1,9.496185184e-2,-1.469182372e-1,3.397357404e-1
4.656869458e0,3.024881482e-1,1.107788980e-1,-1.446740031e-1,3.531311530e-1
4.666902458e0,2.889831066e-1,1.083948016e-1,-1.177217513e-1,3.303317721e-1
4.676935458e0,2.447775900e-1,8.716434985e-2,-8.323355019e-2,2.728397265e-1
4.686967458e0,1.827891469e-1,2.950282022e-2,-6.761382520e-2,1.971139721e-1
4.697000458e0,9.898825735e-2,-3.068621457e-2,-5.756198987e-2,1.185483089e-1
4.707033458e0,-6.037363783e-3,-7.296232879e-2,-1.536022127e-2,7.480566544e-2
4.717065458e0,-1.260732263e-1,-1.202227846e-1,2.683623508e-2,1.762616233e-1
4.727098458e0,-2.202717364e-1,-1.534243226e-1,7.393529266e-2,2.784332741e-1
4.737130458e0,-2.790269256e-1,-1.763653159e-1,1.003527865e-1,3.450093210e-1
4.747163458e0,-3.162884712e-1,-1.716483533e-1,1.381095201e-1,3.854553071e-1
4.757196458e0,-3.435067832e-1,-1.561490297e-1,1.429777741e-1,4.035121727e-1
4.767228458e0,-3.684366941e-1,-1.328849047e-1,1.227020547e-1,4.104385334e-1
4.777261458e0,-4.015437663e-1,-1.174654588e-1,6.322833896e-2,4.231233308e-1
4.787294458e0,-4.549168348e-1,-8.747598529e-2,1.114650257e-2,4.633849578e-1
4.797326458e0,-5.077209473e-1,-3.029418550e-2,-3.126007691e-2,5.095836441e-1
4.807359458e0,-5.606309175e-1,6.710393727e-2,-6.844475865e-2,5.687659001e-1
4.817391458e0,-6.213749647e-1,1.562077105e-1,-1.242824495e-1,6.526513793e-1
4.827424458e0,-6.817826033e-1,2.017636001e-1,-1.118156686e-1,7.197491314e-1
4.837456625e0,-7.092848420e-1,2.394875437e-1,-1.077090725e-1,7.563336003e-1
4.847488625e0,-7.681145668e-1,2.562908828e-1,-7.421822846e-2,8.131379648e-1
4.857521625e0,-8.456881642e-1,2.685494125e-1,-5.314676836e-2,8.888936028e-1
4.867554625e0,-9.066010118e-1,2.710546553e-1,-2.436785400e-2,9.465673843e-1
4.877586625e0,-9.513535500e-1,2.453476638e-1,-2.950446447e-3,9.824855003e-1
4.887619625e0,-9.788426757e-1,1.957248449e-1,-1.073828619e-2,9.982767700e-1
4.897652625e0,-1.000772476e0,1.293077320e-1,-2.755961008e-2,1.009467964e0
4.907684625e0,-1.009147882e0,6.387395412e-2,-3.903917968e-2,1.011920643e0
4.917717625e0,-9.921718240e-1,1.314792875e-2,-5.869650468e-2,9.939934990e-1
4.927749625e0,-9.503392577e-1,-1.053874381e-2,-7.684168220e-2,9.534990372e-1
4.937782625e0,-9.047323465e-1,-1.241115970e-3,-8.029659837e-2,9.082894379e-1
4.947815625e0,-8.413691521e-1,2.787563205e-2,-7.507546991e-2,8.451718329e-1
4.957847625e0,-7.685295343e-1,5.483773723e-2,-6.467156857e-2,7.731928830e-1
4.967880625e0,-7.051007152e-1,7.652044296e-2,-7.029881328e-2,7.127161566e-1
4.977913625e0,-6.505916715e-1,8.203080297e-2,-1.107362509e-1,6.650271369e-1
4.987945625e0,-6.220416427e-1,8.035343885e-2,-1.432857066e-1,6.433686922e-1
4.997978625e0,-6.054008603e-1,8.835783601e-2,-1.378115863e-1,6.271437970e-1
5.008010625e0,-5.984083414e-1,1.056878567e-1,-1.010873690e-1,6.160203911e-1
5.018043625e0,-5.980115533e-1,1.189557239e-1,-5.892793462e-2,6.125690031e-1
5.028076625e0,-6.098503470e-1,1.330925822e-1,-5.108252913e-2,6.262910713e-1
5.038108625e0,-6.184169650e-1,1.452954561e-1,-4.848727956e-2,6.371038600e-1
5.048141625e0,-6.134008765e-1,1.741310358e-1,-6.389794499e-2,6.408316474e-1
5.058174625e0,-6.122176647e-1,1.981138587e-1,-8.629779518e-2,6.492356117e-1
5.068206625e0,-6.096661091e-1,2.300942391e-1,-1.380374432e-1,6.661009377e-1
5.078239625e0,-5.995855331e-1,2.561953664e-1,-1.728356332e-1,6.745450566e-1
5.088271625e0,-5.759614706e-1,2.696650922e-1,-1.976270080e-1,6.659634463e-1
5.098304625e0,-5.465492606e-1,2.706163824e-1,-1.827228963e-1,6.366608026e-1
5.108337625e0,-5.380140543e-1,2.530231178e-1,-1.931006461e-1,6.251141338e-1
5.118369625e0,-5.622855425e-1,2.679395080e-1,-1.772316694e-1,6.475860374e-1
5.128402625e0,-6.065191627e-1,2.918023467e-1,-1.534885317e-1,6.903425480e-1
5.138435625e0,-6.624612808e-1,3.011716008e-1,-1.056408435e-1,7.353361609e-1
5.148467625e0,-7.371354103e-1,2.887065709e-1,-4.436709732e-2,7.928988186e-1
5.158500625e0,-8.257283568e-1,2.768903673e-1,-2.606798522e-2,8.713065675e-1
5.168532625e0,-9.585323334e-1,2.967279553e-1,-5.311692506e-2,1.004814969e0
5.178565625e0,-1.124279737e0,3.773370683e-1,-5.504531786e-2,1.187189192e0
5.188598625e0,-1.314527392e0,4.705826044e-1,-4.025357962e-2,1.396800130e0
5.198630625e0,-1.509927154e0,5.323104262e-1,-8.364951611e-2,1.603194199e0
5.208663625e0,-1.699984074e0,5.391400456e-1,-8.473157883e-2,1.785440360e0
5.218696625e0,-1.873070359e0,5.228825212e-1,-2.184661850e-2,1.944807439e0
5.228728625e0,-1.985546350e0,4.616504312e-1,6.018298492e-2,2.039396338e0
5.238761625e0,-2.007014513e0,3.943411708e-1,1.665997058e-1,2.052161708e0
5.248793625e0,-1.972490072e0,3.099834323e-1,2.296660393e-1,2.009864001e0
5.258826625e0,-1.867257714e0,2.175616175e-1,2.792501152e-1,1.900517050e0
5.268859625e0,-1.732487082e0,1.375387609e-1,4.018681645e-1,1.783795511e0
5.278891625e0,-1.435490012e0,-1.318630483e-2,6.043707132e-1,1.557584480e0
5.288924625e0,-9.351590872e-1,-1.506146044e-1,8.854388595e-1,1.296614535e0
5.298957625e0,-1.264188588e-1,-3.670843244e-1,1.052150607e0,1.121496112e0
5.308989625e0,1.005001068e0,-5.897778273e-1,1.045886040e0,1.565804151e0
5.319022625e0,2.353037834e0,-6.031623483e-1,8.188641071e-1,2.563421599e0
5.329054625e0,3.879443169e0,-5.670782924e-1,7.749757171e-1,3.996529050e0
5.339087625e0,5.366612911e0,-4.295949638e-1,7.268244624e-1,5.432619973e0
5.349120625e0,6.898928165e0,-2.281509191e-1,8.184062839e-1,6.951046793e0
5.359152625e0,8.471920967e0,3.946053386e-1,9.019539356e-1,8.528931888e0
5.369185625e0,1.061972427e1,5.888221860e-1,1.198155165e0,1.070330935e1
5.379218625e0,1.312720490e1,4.309995770e-1,2.189338207e0,1.331549739e1
5.389250625e0,1.687988853e1,6.903889775e-1,2.663831711e0,1.710272707e1
5.399283625e0,2.132464600e1,1.115609527e0,3.722309351e0,2.167580906e1
5.409316625e0,2.502753258e1,1.480262280e0,3.816167831e0,2.536004141e1
5.419348625e0,2.773921204e1,1.503667474e0,4.556216240e0,2.815109246e1
5.429381625e0,2.948674774e1,1.496516824e0,6.469779015e0,3.022525261e1
5.439413625e0,3.061905479e1,-2.968760431e-1,7.739752769e0,3.158351508e1
5.449446625e0,3.010839653e1,1.440929890e0,8.173367500e0,3.123132653e1
5.459479625e0,2.967182732e1,3.520313501e0,8.251424789e0,3.099832180e1
5.469511625e0,2.968765068e1,5.798810959e0,8.333194733e0,3.137554694e1
5.479544625e0,2.889080429e1,7.934130192e0,8.706417084e0,3.119985085e1
5.489577625e0,2.805535507e1,9.830525398e0,8.790332794e0,3.100019562e1
5.499609625e0,2.723207664e1,1.183105659e1,8.705002785e0,3.094086250e1
5.509642625e0,2.597686195e1,1.372029209e1,8.893143654e0,3.069416518e1
5.519674625e0,2.465945244e1,1.548960686e1,8.807968140e0,3.042362270e1
5.529707625e0,2.319523811e1,1.730682755e1,8.676515579e0,3.021303152e1
5.539740625e0,2.155512238e1,1.905405045e1,8.632055283e0,3.003651973e1
5.549772625e0,1.981468010e1,2.072106934e1,8.594992638e0,2.993088973e1
5.559805625e0,1.791420364e1,2.227191734e1,8.594284058e0,2.984658628e1
5.569838625e0,1.589957428e1,2.367373466e1,8.629383087e0,2.979443619e1
5.579870625e0,1.375156689e1,2.490141106e1,8.671539307e0,2.973855172e1
5.589903625e0,1.148603916e1,2.593933678e1,8.715170860e0,2.967713752e1
5.599936625e0,9.123486519e0,2.677934456e1,8.763428688e0,2.961703874e1
5.609968625e0,6.677958488e0,2.741698647e1,8.810139656e0,2.956188149e1
5.620001625e0,4.182921886e0,2.784162331e1,8.855201721e0,2.951385135e1
5.630033625e0,1.653207064e0,2.805558014e1,8.894041061e0,2.947800259e1
5.640066625e0,-8.969193697e-1,2.803722382e1,8.928329468e0,2.943816317e1
5.650099625e0,-3.441492319e0,2.780131721e1,8.943374634e0,2.940647987e1
5.660131625e0,-5.933872700e0,2.732509613e1,8.802996635e0,2.931491896e1
5.670164625e0,-8.313862801e0,2.657818794e1,8.443181992e0,2.909996067e1
5.680197625e0,-1.053026772e1,2.550177002e1,8.206505775e0,2.878495352e1
5.690229625e0,-1.258018494e1,2.422464561e1,8.266088486e0,2.852056674e1
5.700262625e0,-1.456906605e1,2.282540512e1,8.397300720e0,2.835086355e1
5.710294625e0,-1.645257568e1,2.133499908e1,8.463795662e0,2.824013579e1
5.720327625e0,-1.819781113e1,1.974761963e1,8.493634224e0,2.816506050e1
5.730360625e0,-1.981078720e1,1.806129837e1,8.515948296e0,2.812826272e1
5.740392625e0,-2.126490593e1,1.627985573e1,8.551206589e0,2.811321861e1
5.750425625e0,-2.256885719e1,1.440913200e1,8.612618446e0,2.812745272e1
5.760458625e0,-2.371443367e1,1.244865131e1,8.684976578e0,2.815620894e1
5.770490625e0,-2.468394852e1,1.039368916e1,8.776713371e0,2.818433583e1
5.780523625e0,-2.547988129e1,8.241432190e0,8.897409439e0,2.821895550e1
5.790556625e0,-2.607907295e1,6.011512756e0,9.042390823e0,2.824926837e1
5.800588625e0,-2.647766876e1,3.702044010e0,9.203114510e0,2.827488974e1
5.810621625e0,-2.665931511e1,1.342085123e0,9.382198334e0,2.829392020e1
5.820653625e0,-2.661588860e1,-1.065747261e0,9.572616577e0,2.830505840e1
5.830686583e0,-2.634290886e1,-3.500612497e0,9.765642166e0,2.831202751e1
5.840719583e0,-2.582213020e1,-5.926329136e0,9.956578255e0,2.830260122e1
5.850751583e0,-2.505371857e1,-8.324924469e0,1.019255638e1,2.829984783e1
5.860784583e0,-2.402808189e1,-1.056321716e1,1.058723831e1,2.830229481e1
5.870817583e0,-2.272914696e1,-1.249031830e1,1.103094769e1,2.818339900e1
5.880849583e0,-2.122885513e1,-1.420331955e1,1.109047508e1,2.784595508e1
5.890882583e0,-1.957845306e1,-1.591468143e1,1.086854172e1,2.747213331e1
5.900914583e0,-1.778375435e1,-1.763086128e1,1.064730835e1,2.721165859e1
5.910947583e0,-1.582296276e1,-1.924817467e1,1.062460423e1,2.708764651e1
5.920980583e0,-1.372156143e1,-2.066873360e1,1.062837696e1,2.698963122e1
5.931012583e0,-1.147836399e1,-2.187363434e1,1.064923191e1,2.690009032e1
5.941045583e0,-9.124812126e0,-2.285292053e1,1.065581608e1,2.681537972e1
5.951078583e0,-6.685955524e0,-2.359966469e1,1.065650368e1,2.674335890e1
5.961110583e0,-4.189103127e0,-2.410098076e1,1.064963722e1,2.667996686e1
5.971143583e0,-1.667034388e0,-2.435681915e1,1.063005543e1,2.662764956e1
5.981176583e0,8.614447117e-1,-2.436896324e1,1.060001183e1,2.658850705e1
5.991208583e0,3.349807978e0,-2.413065338e1,1.055456448e1,2.655011257e1
6.001241583e0,5.773118973e0,-2.363305664e1,1.050357056e1,2.649858984e1
6.011273583e0,8.105060577e0,-2.289110947e1,1.044382191e1,2.643422622e1
6.021306583e0,1.031807709e1,-2.192597008e1,1.029557323e1,2.632887591e1
6.031339583e0,1.235660744e1,-2.069039536e1,9.998191833e0,2.609103385e1
6.041371583e0,1.423145008e1,-1.919190216e1,9.861949921e0,2.584804318e1
6.051404583e0,1.597521019e1,-1.754514313e1,9.885701180e0,2.570537834e1
6.061437583e0,1.757508087e1,-1.579506969e1,9.973405838e0,2.564832389e1
6.071469583e0,1.902349091e1,-1.398889542e1,1.005765915e1,2.566590947e1
6.081502583e0,2.028381348e1,-1.210509777e1,1.008719063e1,2.568497413e1
6.091535583e0,2.135345840e1,-1.013645649e1,1.009964371e1,2.570448869e1
6.101567583e0,2.220195389e1,-8.077655792e0,1.011654377e1,2.570057854e1
6.111600583e0,2.282084084e1,-5.944803715e0,1.014721012e1,2.567289117e1
6.121632583e0,2.322852325e1,-3.750599384e0,1.019036579e1,2.564127226e1
6.131665583e0,2.342047882e1,-1.511138678e0,1.024269962e1,2.560693781e1
6.141698583e0,2.340254974e1,7.649211884e-1,1.030233002e1,2.558129087e1
6.151730583e0,2.316576385e1,3.041887760e0,1.036536884e1,2.556064489e1
6.161763583e0,2.272014046e1,5.322024345e0,1.042156410e1,2.555655931e1
6.171796583e0,2.204893684e1,7.557530880e0,1.047618866e1,2.555430331e1
6.181828583e0,2.113584709e1,9.716423988e0,1.052613354e1,2.553296721e1
6.191861583e0,2.000324821e1,1.175161934e1,1.061014748e1,2.551089426e1
6.201893583e0,1.864688873e1,1.359060669e1,1.071769238e1,2.544169765e1
6.211926583e0,1.709440422e1,1.525268555e1,1.070269775e1,2.528657374e1
6.221959583e0,1.537965679e1,1.677019882e1,1.065319252e1,2.512496612e1
6.231991583e0,1.350091839e1,1.812053680e1,1.060624886e1,2.496239504e1
6.242024583e0,1.149677086e1,1.929524612e1,1.055392742e1,2.481668083e1
6.252057583e0,9.373805046e0,2.029584122e1,1.052323055e1,2.470886021e1
6.262089583e0,7.164258003e0,2.112035561e1,1.048439980e1,2.464383600e1
6.272122583e0,4.903149128e0,2.172071457e1,1.042817688e1,2.458815133e1
6.282155583e0,2.641067743e0,2.209699249e1,1.034519291e1,2.454129851e1
6.292187583e0,4.110832214e-1,2.224151993e1,1.025681877e1,2.449605130e1
6.302220583e0,-1.757066727e0,2.214466095e1,1.016023445e1,2.442751842e1
6.312252583e0,-3.858677387e0,2.182204819e1,1.006478310e1,2.433908456e1
6.322285583e0,-5.899715900e0,2.127388573e1,9.972322464e0,2.422461717e1
6.332318583e0,-7.871525288e0,2.052270889e1,9.885919571e0,2.410132562e1
6.342350583e0,-9.764603615e0,1.957945442e1,9.806054115e0,2.397626361e1
6.352383583e0,-1.157435322e1,1.825757408e1,9.588257790e0,2.364824203e1
6.362416583e0,-1.230240631e1,-4.446183681e0,5.747658253e0,1.428822332e1
6.372448583e0,-8.193770409e0,4.362770081e0,1.052650690e0,9.342361038e0
6.382481583e0,-8.503827095e0,2.804176521e1,3.419893742e0,2.950171766e1
6.392513583e0,-1.511074924e1,1.034156799e1,-2.211202621e0,1.844375744e1
6.402546583e0,-1.456877995e1,3.976757526e0,-5.549700260e0,1.608922380e1
6.412579583e0,-1.184957600e1,1.872312737e1,-5.201498985e0,2.276013052e1
6.422611583e0,-1.364654827e1,1.220331383e1,-7.189363480e0,1.966814926e1
6.432644583e0,-1.557902050e1,7.500336647e0,-5.987970829e0,1.829799782e1
6.442677583e0,-1.613525772e1,3.672966719e0,-8.407076001e-1,1.656936980e1
6.452709583e0,-1.610462952e1,3.604906559e0,3.273845196e0,1.682475871e1
6.462742583e0,-1.604510307e1,4.981489658e0,4.461736202e0,1.738297045e1
6.472774583e0,-1.619346428e1,6.373543739e0,3.538329363e0,1.775866323e1
6.482807583e0,-1.634115410e1,7.048731804e0,1.553169489e0,1.786421766e1
6.492840583e0,-1.639081192e1,6.962069511e0,7.757182121e-1,1.782500676e1
6.502872583e0,-1.636920738e1,6.848472118e0,6.459863186e-1,1.775583901e1
6.512905583e0,-1.642735481e1,6.764330387e0,5.105523467e-1,1.777286739e1
6.522938583e0,-1.641030693e1,6.684686661e0,3.424496055e-1,1.772288016e1
6.532970583e0,-1.643186188e1,6.630388737e0,1.933386922e-1,1.772020089e1
6.543003583e0,-1.642621231e1,6.593313217e0,4.328821227e-2,1.770011593e1
6.553036583e0,-1.642055702e1,6.579707146e0,-1.127834320e-1,1.769010908e1
6.563068583e0,-1.640534019e1,6.582665443e0,-2.567248940e-1,1.767859098e1
6.573101583e0,-1.636812401e1,6.614489079e0,-4.082065523e-1,1.765881032e1
6.583133583e0,-1.633849716e1,6.665030479e0,-5.526468158e-1,1.765430654e1
6.593166583e0,-1.628596497e1,6.743576527e0,-7.007063031e-1,1.764084659e1
6.603199583e0,-1.622875404e1,6.845592976e0,-8.452195525e-1,1.763374597e1
6.613231583e0,-1.615854454e1,6.968723774e0,-9.910441041e-1,1.762509124e1
6.623264583e0,-1.608177185e1,7.113055229e0,-1.131877422e0,1.762101266e1
6.633297583e0,-1.599263859e1,7.278738022e0,-1.276249290e0,1.761741549e1
6.643329583e0,-1.588680840e1,7.461411476e0,-1.416731834e0,1.760881800e1
6.653362583e0,-1.577110291e1,7.666779041e0,-1.552145839e0,1.760444104e1
6.663394583e0,-1.564547634e1,7.884211540e0,-1.687381148e0,1.760082318e1
6.673427583e0,-1.550786591e1,8.122963905e0,-1.819340706e0,1.760075135e1
6.683460583e0,-1.535213566e1,8.372308731e0,-1.950752497e0,1.759514302e1
6.693492583e0,-1.518617821e1,8.640424728e0,-2.072227240e0,1.759463196e1
6.703525583e0,-1.499418831e1,8.916918755e0,-2.191017389e0,1.758231157e1
6.713558583e0,-1.479140854e1,9.206537247e0,-2.308590412e0,1.757485944e1
6.723590583e0,-1.456490707e1,9.500016212e0,-2.417094469e0,1.755645670e1
6.733623583e0,-1.432582188e1,9.809222221e0,-2.524366379e0,1.754486930e1
6.743656583e0,-1.406991196e1,1.012118912e1,-2.623090267e0,1.752944649e1
6.753688583e0,-1.379523563e1,1.043975353e1,-2.715410471e0,1.751200828e1
6.763721583e0,-1.350473881e1,1.075482464e1,-2.804583549e0,1.749028051e1
6.773753583e0,-1.319757748e1,1.107725811e1,-2.883386850e0,1.746984883e1
6.783786583e0,-1.287081528e1,1.139500713e1,-2.953047037e0,1.744203429e1
6.793819583e0,-1.252972031e1,1.171633244e1,-3.020821095e0,1.741814275e1
6.803851583e0,-1.216778374e1,1.203448772e1,-3.079398394e0,1.738869030e1
6.813884583e0,-1.179741573e1,1.235001850e1,-3.127615213e0,1.736329323e1
6.823917583e0,-1.140917587e1,1.265871429e1,-3.164675951e0,1.733284499e1
6.833949833e0,-1.101237965e1,1.296388245e1,-3.194530725e0,1.730721757e1
6.843982833e0,-1.060468292e1,1.326541042e1,-3.218111038e0,1.728544626e1
6.854014833e0,-1.019240284e1,1.356573200e1,-3.230196714e0,1.727276270e1
6.864047833e0,-9.766174316e0,1.385538673e1,-3.232171774e0,1.725679103e1
6.874080833e0,-9.342468262e0,1.413589668e1,-3.225343466e0,1.724842395e1
6.884112833e0,-8.658127785e0,1.018800163e1,-6.428529263e0,1.483524663e1
6.894145833e0,-6.873676300e0,1.220775700e1,-1.155914116e1,1.816288802e1
6.904178833e0,-1.074311256e1,1.544944382e1,-1.120368958e1,2.190028406e1
6.914210833e0,-1.741403961e1,1.477789307e1,-1.098835278e1,2.534519276e1
6.924243833e0,-1.924180603e1,1.880175018e1,-1.273242474e1,2.976352716e1
6.934276833e0,-1.926462746e1,1.835419655e1,-1.202007484e1,2.919733894e1
6.944308833e0,-2.062985802e1,1.886902618e1,-1.199610901e1,3.042265311e1
6.954341833e0,-1.918742752e1,2.027174377e1,-1.106227589e1,3.002457191e1
6.964374833e0,-1.661473465e1,1.671740913e1,-1.038579464e1,2.575627896e1
6.974406833e0,-1.348124790e1,-2.361094093e1,-2.945376158e0,2.734768395e1
6.984439833e0,-1.402356815e1,-5.356170177e0,1.089971736e-1,1.501202528e1
6.994471833e0,-1.418116379e1,-1.269974422e1,-3.341924846e-1,1.903944837e1
7.004504833e0,-1.265944481e1,-2.133296013e0,-2.724702120e0,1.312389029e1
7.014537833e0,-1.155650520e1,8.016269684e0,-3.372457743e0,1.446329366e1
7.024569833e0,-1.047184372e1,7.592511177e0,-1.908140182e0,1.307466006e1
7.034602833e0,-6.415134430e0,6.343546867e0,4.790232658e0,1.021473766e1
7.044635833e0,-8.054003716e0,6.447117805e0,4.575725555e0,1.128581270e1
7.054667833e0,-9.091708183e0,6.289417744e0,4.965305805e0,1.211900140e1
7.064700833e0,-9.389839172e0,6.323815346e0,4.225286007e0,1.208357406e1
7.074733833e0,-9.283600807e0,6.144618034e0,3.344691753e0,1.162448010e1
7.084765833e0,-9.761837006e0,5.863160133e0,3.328563452e0,1.186378705e1
7.094798833e0,-9.911168098e0,5.542849064e0,3.319308519e0,1.183098634e1
7.104830833e0,-9.967596054e0,5.235687256e0,3.307180643e0,1.173468517e1
7.114863833e0,-1.030314350e1,4.485098362e0,2.994435549e0,1.162916668e1
7.124896833e0,-1.041890430e1,3.843465567e0,1.879796386e0,1.126318911e1
7.134928833e0,-1.049238491e1,3.622387409e0,8.829379082e-1,1.113514306e1
7.144961833e0,-1.063261318e1,4.017980576e0,3.322923183e-1,1.137132574e1
7.154994833e0,-1.061369514e1,4.191823959e0,2.511418164e-1,1.141424483e1
7.165026833e0,-1.062049866e1,4.337658405e0,1.560805440e-1,1.147321373e1
7.175059833e0,-1.065848827e1,4.478192329e0,7.981905341e-2,1.156131264e1
7.185091833e0,-1.062388039e1,4.565426826e0,2.231208235e-2,1.156332367e1
7.195124833e0,-1.064666176e1,4.702629566e0,-2.473104745e-2,1.163901813e1
7.205157833e0,-1.064615250e1,5.076439381e0,-6.613920629e-2,1.179470958e1
7.215189833e0,-1.065719032e1,5.803012848e0,-3.996754438e-2,1.213475427e1
7.225222833e0,-1.067571735e1,6.495885849e0,2.911006287e-2,1.249673243e1
7.235255833e0,-1.065421486e1,6.532156944e0,-7.307318971e-3,1.249725658e1
7.245287833e0,1.805928707e0,2.105358315e1,1.419780135e0,2.117853908e1
7.255320833e0,-6.731458902e-1,8.361860275e0,-1.286727786e0,8.487019562e0
7.265353833e0,-2.552995443e0,1.844299078e0,-8.367520571e-1,3.258738840e0
7.275385833e0,-2.305622101e0,2.972671986e-1,-6.899548769e-1,2.424932740e0
7.285418833e0,-2.492252111e0,1.992445588e0,-7.525607347e-1,3.278339163e0
7.295450833e0,-2.518309116e0,1.259205699e0,-8.729928732e-1,2.947812130e0
7.305483833e0,-1.281663299e0,7.663187981e-1,-5.865325928e-1,1.604345908e0
7.315516833e0,7.727338076e-1,-2.455060482e-1,1.554312930e-2,8.109453409e-1
7.325548833e0,1.223120213e0,-4.410739541e-1,1.865955740e-1,1.313539948e0
7.335581833e0,1.772170305e0,-7.252199650e-1,2.641356289e-1,1.932950910e0
7.345614833e0,2.807285547e0,-1.584111571e0,2.982145250e-1,3.237158247e0
7.355646833e0,3.467449427e0,-2.656193972e0,2.142802030e-1,4.373155376e0
7.365679833e0,3.803489685e0,-3.636642218e0,2.153417319e-1,5.266694643e0
7.375712833e0,-2.016805649e0,-7.465730667e0,2.031418867e-2,7.733372620e0
7.385744833e0,-5.576944947e-1,-5.098425865e0,8.130492643e-3,5.128843491e0
7.395777833e0,6.529904604e-1,-3.611057758e0,-3.022995591e-1,3.682053734e0
7.405809833e0,5.441846251e-1,-6.335469484e-1,-9.855840355e-2,8.409711059e-1
7.415842833e0,5.624924898e-1,1.162306547e0,-4.426933080e-2,1.292019382e0
7.425875833e0,5.003165007e-1,1.194215536e0,-3.000331111e-2,1.295132250e0
7.435907833e0,5.336192250e-1,1.208098292e0,-3.966233507e-2,1.321296357e0
7.445940833e0,-3.143701255e-1,1.844895244e0,2.511586249e-2,1.871656443e0
7.455973833e0,-2.859622478e0,3.629237175e0,3.081541955e-1,4.630740999e0
7.466005833e0,7.562161982e-2,3.586163044e0,4.866816103e-1,3.619826377e0
7.476038833e0,1.041073561e0,2.682905912e0,5.251858830e-1,2.925344169e0
7.486071833e0,1.057438135e0,1.899725556e0,4.161954820e-1,2.213673706e0
7.496103833e0,-8.719312400e-2,1.612084955e-1,7.029266655e-2,1.962953868e-1
7.506136833e0,-5.275949836e-1,-6.545472741e-1,-3.279110417e-2,8.413464550e-1
7.516168833e0,-3.601207137e-1,-1.410534859e0,9.338321397e-4,1.455780336e0
7.526201833e0,-2.050757557e-1,-2.297110081e0,-3.007228486e-2,2.306442094e0
7.536234833e0,-8.845828772e-1,-2.316031933e0,-1.169605777e-1,2.481969089e0
7.546266833e0,-3.953754008e-1,-1.930390000e0,-5.000498518e-2,1.971098110e0
7.556299833e0,3.502778411e-1,-1.378450274e0,1.835116930e-2,1.422377056e0
7.566332833e0,4.760080576e-1,-8.805055022e-1,7.366129756e-2,1.003643162e0
7.576364833e0,3.639040887e-1,-6.668194383e-2,7.185541093e-2,3.768764619e-1
7.586397833e0,-2.152735293e-1,6.685990095e-1,2.503064647e-2,7.028469685e-1
7.596430833e0,-6.659803391e-1,1.178488970e0,1.002746448e-2,1.353686306e0
7.606462833e0,-2.799333334e-1,1.630448222e0,6.088665128e-2,1.655424798e0
7.616495833e0,3.689371943e-1,1.658026695e0,1.542472243e-1,1.705567173e0
7.626527833e0,6.651496887e-1,1.240809560e0,1.452092528e-1,1.415315583e0
7.636560833e0,4.075351357e-1,7.874972820e-1,5.335921422e-2,8.883040368e-1
7.646593833e0,7.095058449e-3,2.342710644e-1,-2.737904154e-2,2.359722089e-1
7.656625833e0,-1.900824159e-1,-3.798747659e-1,-2.285006829e-2,4.253919231e-1
7.666658833e0,-3.174372017e-1,-8.274837136e-1,-1.282992680e-2,8.863747968e-1
7.676691833e0,-4.812743068e-1,-1.028621316e0,-3.823194653e-2,1.136287134e0
7.686723833e0,-3.183397353e-1,-1.059950233e0,-3.072183020e-2,1.107148822e0
7.696756833e0,5.900898017e-3,-8.443826437e-1,-4.910473712e-3,8.444175403e-1
7.706789833e0,1.061087251e-1,-4.353362620e-1,9.101215750e-3,4.481735765e-1
7.716821833e0,9.191665798e-3,6.334984303e-2,3.694733605e-3,6.411973478e-2
7.726854833e0,-7.663456351e-2,4.901842773e-1,3.332543885e-3,4.961497636e-1
7.736886833e0,2.219355106e-2,7.376041412e-1,3.474984691e-2,7.387556935e-1
7.746919833e0,1.794862300e-1,7.446162105e-1,6.323714554e-2,7.685489862e-1
7.756952833e0,2.255290300e-1,5.629860163e-1,4.998366162e-2,6.085350970e-1
7.766984833e0,1.281097978e-1,3.082794249e-1,1.891469210e-2,3.343741762e-1
7.777017833e0,2.461078693e-4,1.455004513e-2,-2.583941678e-3,1.477975430e-2
7.787050833e0,-1.070651710e-1,-2.626373470e-1,-6.022082642e-3,2.836857281e-1
7.797082833e0,-1.816333383e-1,-4.253650010e-1,-1.141364593e-2,4.626622147e-1
7.807115833e0,-1.371676177e-1,-4.591211081e-1,-1.535618957e-2,4.794193986e-1
7.817148833e0,-5.592754856e-2,-3.567790091e-1,-1.166212093e-2,3.613241717e-1
7.827180833e0,-5.615375936e-3,-1.523944438e-1,-1.985791372e-3,1.525107940e-1
7.837214458e0,4.928477108e-3,7.850323617e-2,2.780470531e-3,7.870691833e-2
7.847246458e0,2.587397210e-2,2.421174645e-1,1.123467553e-2,2.437550964e-1
7.857279458e0,6.529437751e-2,2.781690657e-1,1.518174633e-2,2.861326096e-1
7.867312458e0,6.785847247e-2,2.152159363e-1,8.045805618e-3,2.258039116e-1
7.877344458e0,3.043866344e-2,9.667064995e-2,1.696563559e-3,1.013637268e-1
7.887377458e0,-1.489659306e-2,-3.805174679e-2,1.527289860e-4,4.086400916e-2
7.897410458e0,-3.999032825e-2,-1.273428649e-1,-4.120311700e-3,1.335380416e-1
7.907442458e0,-4.086278006e-2,-1.417343169e-1,-6.240453571e-3,1.476391772e-1
7.917475458e0,-2.425071411e-2,-9.503956884e-2,-5.861227401e-3,9.825971080e-2
7.927508458e0,-2.159259282e-3,-1.590400003e-2,-2.071283059e-3,1.618301057e-2
7.937540458e0,1.008698717e-2,5.674184486e-2,4.963192157e-3,5.784477111e-2
7.947573458e0,2.230983227e-2,7.277221233e-2,5.952290259e-3,7.634758190e-2
7.957605458e0,1.449325029e-2,4.536967725e-2,1.104544383e-3,4.764117899e-2
7.967638458e0,8.051348850e-4,2.184920944e-3,-2.067812951e-3,3.114156727e-3
7.977671458e0,-9.322995320e-3,-3.199626878e-2,-3.006048966e-3,3.346215456e-2
7.987703458e0,-1.024977583e-2,-3.042473644e-2,1.285102335e-3,3.213057703e-2
7.997736458e0,-4.615936778e-4,-7.786003873e-3,-1.281652367e-3,7.904274655e-3
8.007769458e0,4.229564220e-3,1.403993182e-2,-1.178509556e-4,1.466365534e-2
8.017801458e0,7.103480864e-3,1.669233106e-2,1.157114748e-4,1.814129945e-2
8.027834458e0,2.100200159e-3,8.395982441e-4,2.394844778e-3,3.294092809e-3
8.037867458e0,-3.988252021e-3,-8.399756625e-3,2.746933606e-4,9.302554595e-3
8.047899458e0,-3.256415250e-3,-6.679087412e-3,2.089422196e-5,7.430671941e-3
8.057932458e0,5.071609630e-4,1.352154650e-4,1.682184055e-3,1.762168737e-3
8.067964458e0,-2.307140268e-2,7.808314636e-3,1.090163365e-3,2.438130135e-2
8.077997458e0,-2.441592887e-2,4.772664979e-3,-1.024657162e-3,2.489911316e-2
8.088030458e0,1.215931494e-3,-5.917796865e-3,-1.768478192e-3,6.294944341e-3
8.098062458e0,1.451915223e-2,-7.509333547e-3,5.154416431e-4,1.635425180e-2
8.108095458e0,2.473024465e-2,-8.466207422e-3,8.525977610e-4,2.615317555e-2
8.118128458e0,6.076265592e-3,-1.200675033e-4,2.631333889e-3,6.622638280e-3
8.128160458e0,-1.186172105e-2,4.852853250e-3,-5.286606029e-5,1.281613849e-2
8.138193458e0,-1.046915352e-2,4.909806885e-3,3.471348900e-4,1.156848658e-2
8.148226458e0,-2.055961639e-3,-2.328931121e-3,-5.159955472e-4,3.149150652e-3
8.158258458e0,7.936685346e-3,-2.341437619e-3,7.095931796e-4,8.305228888e-3
8.168291458e0,9.361742996e-3,-1.247144770e-3,-4.552733153e-4,9.455415157e-3
8.178323458e0,3.355647903e-3,6.324935239e-4,1.831578556e-3,3.874932375e-3
8.188356458e0,-3.961387090e-3,1.149945660e-3,7.127845893e-4,4.186051191e-3
8.198389458e0,-4.396155011e-3,1.054421067e-3,-3.268900327e-3,5.578861176e-3
8.208421458e0,-3.070433158e-3,-1.885176054e-3,-5.500791594e-4,3.644727098e-3
8.218454458e0,2.098133322e-3,1.570533495e-4,8.784420788e-4,2.280019666e-3
8.228487458e0,4.993788432e-3,-1.199154649e-4,1.146356110e-3,5.125079019e-3
8.238519458e0,3.512308467e-3,2.133215545e-3,1.463363878e-4,4.111974424e-3
8.248552458e0,1.886182348e-3,-3.082851879e-3,1.117591164e-3,3.782944564e-3
8.258585458e0,1.106773620e-3,-1.462163636e-3,7.860300830e-4,1.995172583e-3
8.268617458e0,4.633539356e-4,-6.323226262e-4,8.725828957e-4,1.173000291e-3
8.278650458e0,2.893843921e-4,6.797902752e-4,1.503482228e-3,1.675206541e-3
8.288682458e0,-1.322094351e-3,-2.885349095e-4,1.633795910e-4,1.363040263e-3
8.298715458e0,1.700027497e-3,-7.946637925e-4,1.823861385e-3,2.616878748e-3
8.308748458e0,-4.242816474e-3,2.919380786e-3,-3.077327274e-4,5.159358026e-3
8.318780458e0,-1.139434986e-3,-6.623046938e-4,-2.293651691e-3,2.645335078e-3
8.328813458e0,-7.203995483e-5,-5.938614486e-4,-1.154351514e-3,1.300149450e-3
8.338846458e0,-5.859314697e-4,-7.292616647e-4,-1.465672627e-3,1.738773853e-3
8.348878458e0,1.006314415e-4,-1.601446886e-3,-1.157012070e-3,1.978240568e-3
8.358911458e0,-5.459493841e-4,2.593922196e-3,-1.066676341e-4,2.652898617e-3
8.368944458e0,-2.716438030e-4,2.807003912e-4,-1.292839646e-3,1.350561889e-3
8.378976458e0,3.367552999e-4,2.498279791e-4,4.552630708e-4,6.189366808e-4
8.389009458e0,-5.037383526e-4,-1.138477935e-3,-2.215621294e-3,2.541429137e-3
8.399042458e0,1.618301729e-3,1.128799282e-3,2.009749180e-3,2.816412624e-3
8.409074458e0,-1.306914375e-3,-9.228999261e-4,-2.087790286e-3,2.630330347e-3
8.419107458e0,1.218760852e-3,-1.536749303e-3,-1.962353941e-3,2.774492643e-3
8.429139458e0,-2.762665041e-3,-1.286678365e-3,6.057323189e-4,3.107212736e-3
8.439172458e0,2.123467391e-3,-6.617391482e-4,-6.795069203e-4,2.325670251e-3
8.449205458e0,6.350267213e-4,-1.359753660e-3,7.348979125e-4,1.671006850e-3
8.459237458e0,-3.440190922e-4,-1.684119692e-3,1.135969767e-3,2.060348414e-3
8.469270458e0,-3.112622071e-4,4.322945606e-4,-1.682453556e-3,1.764769876e-3
8.479303458e0,4.561426118e-3,1.091541490e-3,-4.680524580e-4,4.713506567e-3
8.489335458e0,1.066559926e-3,-3.635569476e-3,1.570064807e-3,4.101221646e-3
8.499368458e0,-1.874872134e-3,-2.157357056e-3,-2.552662045e-4,2.869581123e-3
8.509401458e0,8.103932487e-4,9.114993736e-5,-5.056033842e-4,9.595208756e-4
8.519433458e0,1.332836598e-1,2.906839550e-1,-6.018110365e-2,3.253973892e-1
8.529466458e0,3.504918516e-1,6.571756601e-1,-9.228817374e-2,7.504941661e-1
8.539498458e0,1.367432922e-1,5.661141872e-1,7.439483888e-3,5.824425696e-1
8.549531458e0,2.315571606e-1,7.661434412e-1,1.223751232e-1,8.096728734e-1
8.559564458e0,3.200218976e-1,4.020185769e-1,1.170187071e-1,5.269974657e-1
8.569596458e0,-1.649922132e-1,2.781836502e-2,1.876111515e-2,1.683694489e-1
8.579629458e0,-1.030863076e-1,-2.869036496e-1,4.144831374e-2,3.076661400e-1
8.589662458e0,-1.308584306e-2,-3.864717782e-1,5.003807321e-2,3.899172776e-1
8.599694458e0,-8.810286224e-2,-2.241327763e-1,3.760031611e-2,2.437445374e-1
8.609727458e0,-1.842323244e-1,-1.203709543e-1,5.499555171e-2,2.268374455e-1
8.619760458e0,2.149976417e-2,-2.561422884e-1,1.516288668e-1,2.984332841e-1
8.629792458e0,-2.619420178e-3,-3.638285398e-1,4.281837940e-1,5.618891610e-1
8.639825458e0,1.112285536e-2,-4.501499236e-1,9.049247503e-1,1.010765787e0
8.649858458e0,2.114849836e-1,-6.283492446e-1,1.643785477e0,1.772450102e0
8.659890458e0,4.722735584e-1,-8.389344811e-1,2.598803043e0,2.771395070e0
8.669923458e0,7.294827700e-1,-9.467117786e-1,3.466572285e0,3.666814927e0
8.679955458e0,1.226678133e0,-2.052420229e-1,3.833449841e0,4.030161437e0
8.689988458e0,2.151163101e0,1.934443831e0,3.280758381e0,4.374122904e0
8.700021458e0,2.333244324e0,3.271126747e0,2.383864164e0,4.671949018e0
8.710053458e0,8.230470419e-1,2.924960613e0,1.605578899e0,3.436667663e0
8.720086458e0,3.585203290e-1,2.674293280e0,1.531611800e0,3.102614394e0
8.730119458e0,2.575436421e-2,2.750292540e0,1.734053850e0,3.251417398e0
8.740151458e0,-4.602681398e-1,3.124605656e0,2.023249626e0,3.750806089e0
8.750184458e0,-1.154329181e0,3.626860619e0,2.339048386e0,4.467408774e0
8.760217458e0,-2.149504185e0,3.239793062e0,2.525660515e0,4.636333504e0
8.770249458e0,-2.940056562e0,3.868746281e0,2.917590141e0,5.667756400e0
8.780282458e0,-3.615715504e0,4.736468315e0,3.390740871e0,6.855994046e0
8.790315458e0,-4.278476238e0,5.269362926e0,3.833712101e0,7.795440529e0
8.800347458e0,-4.795961857e0,5.489467144e0,4.018945217e0,8.323906554e0
8.810380458e0,-4.974737644e0,6.058982372e0,3.878644466e0,8.746608766e0
8.820412458e0,-4.966142178e0,6.982720852e0,3.772505999e0,9.362305279e0
8.830445458e0,-5.008433819e0,7.514336109e0,3.826461077e0,9.807724550e0
8.840478750e0,-4.857902527e0,7.811532497e0,3.893505096e0,9.988925811e0
8.850510750e0,-4.512264252e0,8.039099693e0,3.887569666e0,1.000504125e1
8.860543750e0,-4.178722382e0,8.154784203e0,3.990891933e0,9.994470699e0
8.870576750e0,-3.931788683e0,8.105694771e0,4.114969254e0,9.904252719e0
8.880608750e0,-3.664539814e0,7.960616112e0,4.017614841e0,9.640616678e0
8.890641750e0,-3.317984819e0,7.730270863e0,3.681569815e0,9.182595884e0
8.900674750e0,-2.892926931e0,7.553210735e0,3.206503630e0,8.700671478e0
8.910706750e0,-2.405436277e0,7.625282288e0,2.706180334e0,8.441236026e0
8.920739750e0,-1.943476558e0,7.832508087e0,2.304688454e0,8.392667808e0
8.930772750e0,-1.551650167e0,7.983812332e0,2.072733164e0,8.393157949e0
8.940804750e0,-1.255503774e0,8.010223389e0,2.004430294e0,8.352108073e0
8.950837750e0,-1.105893970e0,7.802812099e0,1.996185064e0,8.129676066e0
8.960870750e0,-1.026960135e0,7.391136646e0,1.935524940e0,7.709072891e0
8.970902750e0,-9.540835023e-1,6.838369846e0,1.790864110e0,7.133075896e0
8.980935750e0,-8.694732189e-1,6.292858124e0,1.604176044e0,6.552055237e0
8.990967750e0,-7.608628273e-1,5.885760784e0,1.402681231e0,6.098246214e0
9.001000750e0,-5.922294855e-1,5.635473728e0,1.194061160e0,5.790948278e0
9.011033750e0,-4.090413451e-1,5.467586994e0,1.020795703e0,5.577082232e0
9.021065750e0,-2.331436723e-1,5.338249683e0,9.517713785e-1,5.427442714e0
9.031098750e0,-6.846231967e-2,5.260328293e0,9.771448970e-1,5.350752563e0
9.041131750e0,8.537524194e-2,5.260348797e0,1.005090714e0,5.356189479e0
9.051163750e0,2.416633815e-1,5.394905567e0,1.027944326e0,5.497279037e0
9.061196750e0,4.029733837e-1,5.638088226e0,1.035536528e0,5.746543509e0
9.071229750e0,5.461025834e-1,5.912498474e0,1.014645100e0,6.023733968e0
9.081261750e0,6.589817405e-1,6.239297867e0,1.001103163e0,6.353369370e0
9.091294750e0,7.524349689e-1,6.630181313e0,9.837585688e-1,6.744867941e0
9.101327750e0,8.481560349e-1,7.010581970e0,9.567309618e-1,7.126216553e0
9.111359750e0,1.017942429e0,7.252836704e0,9.297030568e-1,7.382695634e0
9.121392750e0,1.465110660e0,6.988956451e0,9.522818923e-1,7.204089278e0
9.131424750e0,2.323844433e0,5.853828430e0,1.171582818e0,6.406259949e0
9.141457750e0,3.012962103e0,4.331970215e0,1.449530482e0,5.472206611e0
9.151490750e0,3.217357397e0,2.932635546e0,1.521715522e0,4.611654583e0
9.161522750e0,3.180919170e0,1.682410836e0,1.406032801e0,3.863376920e0
9.171555750e0,3.074279308e0,6.179005504e-1,1.228488088e0,3.367814920e0
9.181588750e0,2.986419916e0,-2.133464217e-1,9.948272109e-1,3.154980474e0
9.191620750e0,2.904340029e0,-7.252480984e-1,6.415998936e-1,3.061507183e0
9.201653750e0,2.418763161e0,-5.373522639e-1,2.445478886e-1,2.489772350e0
9.211686750e0,2.138840199e0,-1.719586104e-1,1.617437787e-2,2.145802593e0
9.221718750e0,2.167334318e0,6.982976943e-2,1.178654493e-3,2.168459276e0
9.231751750e0,2.136585474e0,2.360245883e-1,1.627150923e-1,2.155732195e0
9.241784750e0,1.975263357e0,3.737090528e-1,3.120289445e-1,2.034376034e0
9.251816750e0,1.736729383e0,6.129903793e-1,4.261139631e-1,1.890386010e0
9.261849750e0,1.492956519e0,1.063232064e0,5.138459802e-1,1.903528114e0
9.271881750e0,1.231218100e0,1.616340280e0,6.206376553e-1,2.124534068e0
9.281914750e0,9.097320437e-1,2.208717108e0,7.823101878e-1,2.513573727e0
9.291947750e0,5.932201743e-1,2.646316290e0,9.883938432e-1,2.886489645e0
9.301979750e0,3.382171392e-1,2.774815798e0,1.209150434e0,3.045658930e0
9.312012750e0,1.599845439e-1,2.521746159e0,1.326081514e0,2.853645200e0
9.322045750e0,8.540170640e-2,1.936744571e0,1.343659401e0,2.358748306e0
9.332077750e0,1.762557179e-1,1.266816497e0,1.237755656e0,1.779867742e0
9.342110750e0,4.187228382e-1,7.873201370e-1,9.994965196e-1,1.339475683e0
9.352143750e0,7.559229136e-1,6.065026522e-1,6.584619880e-1,1.171681317e0
9.362175750e0,1.115303278e0,5.759842992e-1,2.995349765e-1,1.290496229e0
9.372208750e0,1.373594761e0,4.714277983e-1,8.029425144e-2,1.454460004e0
9.382241750e0,1.457780242e0,1.462630332e-1,7.676262408e-2,1.467108929e0
9.392273750e0,1.445403695e0,-9.661105871e-1,9.636775404e-2,1.741220334e0
9.402306750e0,1.616013527e0,-1.139975548e0,1.593794823e-1,1.984047829e0
9.412338750e0,1.612846017e0,-1.117031813e0,1.031987667e-1,1.964607424e0
9.422371750e0,1.406171083e0,-1.100797892e0,3.526234999e-3,1.785801094e0
9.432404750e0,1.195677757e0,-7.381289005e-1,-1.699235477e-2,1.405264499e0
9.442436750e0,8.624192476e-1,-9.182170033e-2,1.504019499e-1,8.802379961e-1
9.452469750e0,3.123721480e-1,3.719837666e-1,3.489259779e-1,5.980782721e-1
9.462502750e0,-1.083693579e-1,3.733132184e-1,4.219783545e-1,5.737354864e-1
9.472534750e0,-4.427187145e-2,4.420499206e-1,4.855850339e-1,6.581496456e-1
9.482567750e0,1.976469159e-1,2.911236882e-1,3.577404916e-1,5.017923520e-1
9.492600750e0,4.822626710e-1,1.421821415e-1,1.179803684e-1,5.164420708e-1
9.502632750e0,6.503990889e-1,1.001578644e-1,-1.385190636e-1,6.724865081e-1
9.512665750e0,6.693086028e-1,1.154776961e-1,-3.562939763e-1,7.669775105e-1
9.522698750e0,5.225597024e-1,1.365683079e-1,-4.045403600e-1,6.748128986e-1
9.532730750e0,2.733514905e-1,1.055502072e-1,-3.002730608e-1,4.195542809e-1
9.542763750e0,8.520069718e-2,1.210205182e-1,-1.190654710e-1,1.899518650e-1
9.552796750e0,7.207237929e-2,2.027723640e-1,-8.093539625e-2,2.299165019e-1
9.562828750e0,2.469790876e-1,3.997692764e-1,-2.214397639e-1,5.194706085e-1
9.572861750e0,4.686784744e-1,5.405967236e-1,-4.203195870e-1,8.298029194e-1
9.582893750e0,6.083211899e-1,6.163201332e-1,-5.253437161e-1,1.012862872e0
9.592926750e0,6.747060418e-1,6.137651205e-1,-4.572597742e-1,1.020305036e0
9.602959750e0,6.788296700e-1,5.308115482e-1,-2.134148628e-1,8.877592715e-1
9.612991750e0,6.933860183e-1,4.753679335e-1,6.563168019e-2,8.432475081e-1
9.623024750e0,7.952467799e-1,4.501094520e-1,2.336380035e-1,9.431875086e-1
9.633057750e0,9.000397921e-1,3.446852863e-1,2.709765732e-1,1.001153274e0
9.643089750e0,1.065102816e0,1.664078087e-1,1.889709234e-1,1.094461318e0
9.653122750e0,1.250980377e0,5.075152218e-2,7.975789160e-2,1.254547306e0
9.663155750e0,1.322834611e0,-2.043821290e-2,3.219436109e-2,1.323384149e0
9.673187750e0,1.349691749e0,-5.088240653e-2,-1.341306977e-2,1.350717123e0
9.683220750e0,1.297486067e0,-8.538266644e-3,-3.644489124e-2,1.298025896e0
9.693253750e0,1.181533337e0,3.148398548e-2,1.702206209e-2,1.182075301e0
9.703285750e0,1.046454668e0,1.588288993e-1,1.456764340e-1,1.068417341e0
9.713318750e0,9.427834749e-1,3.339327872e-1,2.209621370e-1,1.024292953e0
9.723351750e0,8.435599804e-1,4.936220348e-1,2.479666024e-1,1.008337042e0
9.733383750e0,7.684383392e-1,5.540392995e-1,3.221724033e-1,1.000625846e0
9.743416750e0,7.560474873e-1,5.250975490e-1,4.290090799e-1,1.015570790e0
9.753449750e0,8.732444048e-1,4.315081835e-1,5.028252602e-1,1.096169852e0
9.763481750e0,1.051803112e0,3.364159167e-1,4.985503554e-1,1.211617890e0
9.773514750e0,1.146027684e0,2.324644923e-1,4.400708079e-1,1.249432475e0
9.783546750e0,1.107054949e0,7.611282915e-2,3.765591979e-1,1.171819377e0
9.793579750e0,1.007433534e0,-1.435388476e-1,3.217438757e-1,1.067260440e0
9.803612750e0,9.862354398e-1,-4.139033556e-1,2.672638595e-1,1.102454671e0
9.813644750e0,1.031041026e0,-6.801366806e-1,2.593926191e-1,1.262107774e0
9.823677750e0,1.170853019e0,-9.727438688e-1,3.379556239e-1,1.559275931e0
9.833710708e0,1.350586891e0,-1.086113572e0,3.962932229e-1,1.777857126e0
9.843742708e0,1.411979437e0,-9.473890066e-1,3.339059949e-1,1.732837290e0
9.853775708e0,1.275010943e0,-5.754764080e-1,2.357908785e-1,1.418599077e0
9.863808708e0,9.345524907e-1,-2.002198100e-1,2.626574039e-1,9.911938469e-1
9.873840708e0,5.750041604e-1,1.145841926e-1,3.912963271e-1,7.048915784e-1
9.883873708e0,2.831842303e-1,3.831007481e-1,4.479233921e-1,6.539073762e-1
9.893906708e0,5.329219997e-2,5.392498374e-1,3.698397875e-1,6.560578588e-1
9.903938708e0,-5.045163631e-2,5.140421987e-1,2.391643226e-1,5.691962077e-1
9.913971708e0,7.324740291e-2,4.876364768e-1,2.422831394e-2,4.937018601e-1
9.924004708e0,9.117092937e-2,3.076310158e-1,-2.212770581e-1,3.897595627e-1
9.934036708e0,8.756394684e-2,1.649412513e-1,-3.499322534e-1,3.966429668e-1
9.944069708e0,1.372098643e-2,1.246080697e-1,-3.940839767e-1,4.135427635e-1
9.954101708e0,-1.422041655e-1,1.980966777e-1,-3.973247707e-1,4.661880434e-1
9.964134708e0,-2.377715707e-1,3.115167022e-1,-3.879573643e-1,5.514425556e-1
9.974167708e0,-1.092713773e-1,3.906820714e-1,-3.315164745e-1,5.239044643e-1
9.984199708e0,1.713235080e-1,3.726195693e-1,-2.299927771e-1,4.702060882e-1
9.994232708e0,4.843402803e-1,2.589385509e-1,-1.064213067e-1,5.594284358e-1
1.000426571e1,7.053000331e-1,9.423100203e-2,1.153405476e-2,7.116604899e-1
1.001429771e1,7.959969044e-1,-1.067460477e-1,3.892280161e-2,8.040651559e-1
1.002433071e1,7.922523022e-1,-2.037634104e-1,-5.501089618e-3,8.180547046e-1
1.003436371e1,6.774297953e-1,-7.437720150e-2,-2.557599917e-2,6.819803717e-1
1.004439571e1,4.590999782e-1,1.579573750e-1,7.251994312e-2,4.908996481e-1
1.005442871e1,2.173629701e-1,2.698972225e-1,1.042187512e-1,3.618739001e-1
1.006446171e1,6.932897866e-2,3.150320649e-1,-9.433789179e-3,3.227083909e-1
1.007449371e1,6.519708782e-2,4.340929389e-1,-1.694548726e-1,4.705340516e-1
1.008452671e1,1.284616888e-1,4.469793439e-1,-3.653455675e-1,5.914138340e-1
1.009455971e1,-1.995825022e-1,1.404718608e-1,-6.960806251e-1,7.376271114e-1
1.010459171e1,-5.212444663e-1,6.660442799e-2,-5.440809131e-1,7.564099308e-1
1.011462471e1,-3.367038667e-1,3.155364692e-1,-3.680971265e-1,5.902781139e-1
1.012465771e1,-2.514534071e-2,5.053855181e-1,-9.589412808e-2,5.150169840e-1
1.013468971e1,4.449499846e-1,5.349056125e-1,3.790726662e-1,7.923386834e-1
1.014472271e1,1.028094888e0,4.369009733e-1,7.420514226e-1,1.341082351e0
1.015475471e1,1.490707278e0,2.821564078e-1,7.489327788e-1,1.691957664e0
1.016478771e1,1.450896859e0,1.466703713e-1,6.621859074e-1,1.601594228e0
1.017482071e1,1.090809464e0,3.993939236e-2,5.682210326e-1,1.230583433e0
1.018485271e1,6.636629105e-1,-1.594251022e-2,3.764694333e-1,7.631722326e-1
1.019488571e1,4.318334162e-1,3.482772410e-2,8.395287395e-2,4.412948615e-1
1.020491871e1,3.293963075e-1,6.901817024e-2,-1.550120115e-1,3.705322643e-1
1.021495071e1,2.118821889e-1,-2.836510725e-2,-2.580276132e-1,3.350774395e-1
1.022498371e1,8.044942468e-2,4.572389275e-2,-2.174628675e-1,2.363321456e-1
1.023501671e1,-6.121849269e-2,2.694526017e-1,-1.112946197e-1,2.978907531e-1
1.024504871e1,-1.852350086e-1,3.699037135e-1,-4.973352700e-2,4.166703605e-1
1.025508171e1,-2.176352888e-1,4.221213758e-1,-1.743950248e-1,5.059300342e-1
1.026511471e1,-2.107358277e-1,4.823710024e-1,-3.328443170e-1,6.227974891e-1
1.027514671e1,-2.064268291e-1,5.615398288e-1,-4.280291498e-1,7.356276015e-1
1.028517971e1,-1.924589425e-1,5.788725019e-1,-4.249742627e-1,7.434628047e-1
1.029521271e1,-1.515211016e-1,5.476410985e-1,-3.670403659e-1,6.764525462e-1
1.030524471e1,-3.463946283e-2,4.789045155e-1,-3.183857799e-1,5.761240597e-1
1.031527771e1,9.369693696e-2,4.017540514e-1,-2.593711913e-1,4.872974951e-1
1.032531071e1,1.553227752e-1,2.701507509e-1,-1.805956662e-1,3.601685541e-1
1.033534271e1,1.578445137e-1,1.225085631e-1,-4.208066687e-2,2.041911385e-1
1.034537571e1,1.475490779e-1,4.644003883e-2,7.555460185e-2,1.721508218e-1
1.035540871e1,8.586014062e-2,4.668638110e-2,1.079828441e-1,1.456429763e-1
1.036544071e1,-9.191126563e-3,8.128670603e-2,1.890987456e-1,2.060348052e-1
1.037547371e1,-1.442975402e-1,6.236920133e-2,2.789631188e-1,3.202063694e-1
1.038550571e1,-1.581243426e-1,7.164898515e-2,2.769990563e-1,3.269026797e-1
1.039553871e1,-1.668749601e-1,-6.757138763e-3,2.653320134e-1,3.135187212e-1
1.040557171e1,-7.480681688e-2,-3.279513121e-2,2.253286541e-1,2.396759955e-1
1.041560371e1,1.041970178e-1,9.205013514e-2,2.049173862e-1,2.476315429e-1
1.042563671e1,1.744073927e-1,2.615328729e-1,1.927209049e-1,3.687258188e-1
1.043566971e1,1.313701868e-1,4.059800804e-1,1.809023321e-1,4.634690986e-1
1.044570171e1,2.333675697e-2,4.857951701e-1,1.887208372e-1,5.216867891e-1
1.045573471e1,-1.417699158e-1,4.402495325e-1,2.579297125e-1,5.295716160e-1
1.046576771e1,-2.583176792e-1,3.603222072e-1,3.397457898e-1,5.585582495e-1
1.047579971e1,-2.483923435e-1,3.389902711e-1,3.360016644e-1,5.380615938e-1
1.048583271e1,-2.357504666e-1,3.300327361e-1,3.237220645e-1,5.189372452e-1
1.049586571e1,-3.336797059e-1,2.726852894e-1,3.146457374e-1,5.335741309e-1
1.050589771e1,-5.031374097e-1,2.056466043e-1,3.183602989e-1,6.299135328e-1
1.051593071e1,-6.768847108e-1,1.884875894e-1,2.799229026e-1,7.563447061e-1
1.052596371e1,-8.471987247e-1,2.286388725e-1,1.667726636e-1,8.932158387e-1
1.053599571e1,-1.233110785e0,3.479418159e-1,1.251698285e-1,1.287359003e0
1.054602871e1,-1.797400832e0,5.894278288e-1,7.871791720e-2,1.893217216e0
1.055606171e1,-2.416545153e0,7.956659198e-1,3.048327565e-2,2.544347453e0
1.056609371e1,-2.879383087e0,1.003067017e0,-3.907211870e-2,3.049346985e0
1.057612671e1,-3.061734200e0,1.178370357e0,-1.728112698e-1,3.285214870e0
1.058615871e1,-3.091834784e0,1.249489069e0,-2.763251364e-1,3.346194980e0
1.059619171e1,-3.078413248e0,1.057983518e0,-2.036413401e-1,3.261506867e0
1.060622471e1,-2.945548296e0,6.299679279e-1,5.601576343e-2,3.012681882e0
1.061625671e1,-2.669329882e0,1.580877453e-1,2.115222663e-1,2.682360047e0
1.062628971e1,-2.238525867e0,-2.310212702e-1,3.288334906e-1,2.274313160e0
1.063632271e1,-1.810937166e0,-5.155278444e-1,4.781859517e-1,1.942659050e0
1.064635471e1,-1.511783719e0,-7.267919779e-1,6.460058093e-1,1.797509415e0
1.065638771e1,-1.308685422e0,-8.695784807e-1,7.718058228e-1,1.750573762e0
1.066642071e1,-1.191175222e0,-1.076028824e0,1.129287243e0,1.962657922e0
1.067645271e1,-9.247446060e-1,-1.178822279e0,1.261647463e0,1.958705918e0
1.068648571e1,-5.513880253e-1,-1.087029696e0,1.243437529e0,1.741206249e0
1.069651871e1,-2.141718864e-1,-9.253891110e-1,1.060205579e0,1.423464251e0
1.070655071e1,5.565144867e-2,-8.360452056e-1,9.636682272e-1,1.276998481e0
1.071658371e1,1.013209298e-1,-6.644122005e-1,9.082118869e-1,1.129848810e0
1.072661671e1,-1.049214527e-1,-3.638801277e-1,8.637759686e-1,9.431469569e-1
1.073664871e1,-1.769349128e-1,3.879756480e-2,8.941072822e-1,9.122713667e-1
1.074668171e1,-2.735900283e-1,3.562564850e-1,8.457155228e-1,9.576037448e-1
1.075671471e1,-4.460075796e-1,5.183103681e-1,6.459975839e-1,9.406812834e-1
1.076674671e1,-6.319238544e-1,5.113747120e-1,4.763174951e-1,9.421837453e-1
1.077677971e1,-7.526822686e-1,4.287178814e-1,4.585030675e-1,9.800789163e-1
1.078681271e1,-8.691446185e-1,3.352688849e-1,4.655572474e-1,1.041422654e0
1.079684471e1,-9.571879506e-1,3.738133609e-1,4.415749609e-1,1.118451451e0
1.080687771e1,-9.643650055e-1,4.745791256e-1,4.789715409e-1,1.176706823e0
1.081691071e1,-9.388381243e-1,5.120822787e-1,5.417307615e-1,1.198798357e0
1.082694271e1,-9.236835241e-1,3.841038048e-1,6.767379045e-1,1.207767021e0
1.083697558e1,-9.202661514e-1,2.037060857e-1,8.511469960e-1,1.269975263e0
1.084700858e1,-8.129860759e-1,1.902845651e-1,9.498522878e-1,1.264663569e0
1.085704058e1,-5.664769411e-1,3.532066047e-1,9.349401593e-1,1.148809876e0
1.086707358e1,-3.180323243e-1,4.976066947e-1,9.418899417e-1,1.111716530e0
1.087710658e1,-1.028214991e-1,4.875819981e-1,9.795773625e-1,1.099036066e0
1.088713858e1,1.015176997e-1,4.219517410e-1,9.270167351e-1,1.023576642e0
1.089717158e1,3.242000341e-1,3.587392271e-1,8.288971186e-1,9.596196790e-1
1.090720358e1,5.956004262e-1,2.977016866e-1,7.826665044e-1,1.027586015e0
1.091723658e1,8.880613446e-1,2.860061526e-1,8.196988106e-1,1.241917313e0
1.092726958e1,1.159065008e0,2.598122060e-1,8.558064699e-1,1.464014614e0
1.093730158e1,1.405865550e0,1.294337064e-1,8.451713920e-1,1.645456080e0
1.094733458e1,1.545286179e0,-5.081447214e-2,8.082160354e-1,1.744621634e0
1.095736758e1,1.600162268e0,-2.388751805e-1,8.146640658e-1,1.811424350e0
1.096739958e1,1.554939985e0,-4.400960505e-1,8.043381572e-1,1.805126800e0
1.097743258e1,1.380443096e0,-5.666510463e-1,7.941079140e-1,1.690362070e0
1.098746558e1,1.138010263e0,-6.190640926e-1,7.608690262e-1,1.502407863e0
1.099749758e1,7.966742516e-1,-6.062827706e-1,7.483542562e-1,1.249921099e0
1.100753058e1,3.876206577e-1,-5.484867096e-1,7.862737179e-1,1.034076305e0
1.101756358e1,-2.795177884e-2,-4.228611588e-1,8.619327545e-1,9.604795338e-1
1.102759558e1,-4.050093889e-1,-2.579720616e-1,9.010802507e-1,1.021042510e0
1.103762858e1,-6.588780880e-1,-6.463428587e-2,8.149248362e-1,1.049952577e0
1.104766158e1,-8.210090995e-1,4.670501873e-2,6.585224271e-1,1.053512737e0
1.105769358e1,-8.998330832e-1,1.286036223e-1,4.561493695e-1,1.017010677e0
1.106772658e1,-8.660724759e-1,1.986640692e-1,2.771151364e-1,9.307748088e-1
1.107775958e1,-7.463801503e-1,1.919438541e-1,2.839466929e-1,8.213108403e-1
1.108779158e1,-5.934103727e-1,1.367243975e-1,3.339890838e-1,6.945344768e-1
1.109782458e1,-4.181730449e-1,1.868807822e-1,4.001233578e-1,6.081873262e-1
1.110785758e1,-2.356507629e-1,2.804602385e-1,5.376051068e-1,6.505447550e-1