"Time (s)","Gyroscope x (rad/s)","Gyroscope y (rad/s)","Gyroscope z (rad/s)","Absolute (rad/s)"
4.926458329e-3,-1.409424841e-1,2.431039959e-1,1.235010102e-1,3.069476115e-1
1.495945833e-2,-1.407752037e-1,1.451413184e-1,1.928687692e-1,2.794316060e-1
2.499145833e-2,-8.401977271e-2,1.704006270e-2,2.669155598e-1,2.803455047e-1
3.502445833e-2,2.531318553e-2,-1.306880862e-1,3.564794958e-1,3.805230139e-1
4.505645833e-2,1.818066537e-1,-2.517050505e-1,4.156221747e-1,5.187975365e-1
5.508945833e-2,3.662236333e-1,-3.104543984e-1,4.150798321e-1,6.346597120e-1
6.512145833e-2,5.432255864e-1,-3.883806169e-1,3.033666313e-1,7.334608744e-1
7.515445833e-2,7.014756799e-1,-4.864560664e-1,1.957189739e-1,8.757930981e-1
8.518645833e-2,8.061474562e-1,-5.306006670e-1,1.176321656e-1,9.722387131e-1
9.521945833e-2,8.362228274e-1,-5.677858591e-1,5.522911623e-2,1.012274495e0
1.052524583e-1,8.560180664e-1,-6.044775844e-1,1.256971657e-1,1.055442967e0
1.152844583e-1,8.488147259e-1,-5.899966359e-1,3.065759838e-1,1.078225998e0
1.253174583e-1,7.557814717e-1,-6.520757079e-1,5.749296546e-1,1.151934230e0
1.353494583e-1,6.198175550e-1,-7.303313017e-1,7.777128816e-1,1.233853694e0
1.453824583e-1,4.924191535e-1,-8.245885968e-1,8.404604197e-1,1.276243195e0
1.554144583e-1,3.580154181e-1,-8.594131470e-1,8.792802691e-1,1.280585721e0
1.654474583e-1,2.105391473e-1,-7.980573773e-1,9.227545261e-1,1.238021900e0
1.754804583e-1,6.811589748e-2,-6.982446909e-1,9.402544498e-1,1.173142725e0
1.855124583e-1,-6.779292971e-2,-5.679418445e-1,8.707981110e-1,1.041846040e0
1.955454583e-1,-1.822776794e-1,-4.294455051e-1,7.612491846e-1,8.928319637e-1
2.055774583e-1,-2.820926905e-1,-2.947564125e-1,7.261503339e-1,8.329177247e-1
2.156104583e-1,-3.701493442e-1,-1.560244411e-1,7.544260621e-1,8.547004425e-1
2.256424583e-1,-4.374655485e-1,-7.016313728e-3,7.512603402e-1,8.693776128e-1
2.356754583e-1,-5.058428049e-1,8.994810283e-2,7.333784103e-1,8.954392761e-1
2.457074583e-1,-5.876524448e-1,1.415228844e-1,7.771812677e-1,9.845683550e-1
2.557404583e-1,-6.852769852e-1,1.276635081e-1,7.990525961e-1,1.060371430e0
2.657724583e-1,-7.925365567e-1,9.223575890e-2,7.692214847e-1,1.108297488e0
2.758054583e-1,-9.056439996e-1,5.611967295e-2,7.148808241e-1,1.155160190e0
2.858384583e-1,-1.019872785e0,7.661749423e-2,5.727287531e-1,1.172189815e0
2.958704583e-1,-1.128548861e0,9.791611135e-2,4.929151237e-1,1.235384723e0
3.059034583e-1,-1.264709115e0,2.064689249e-2,2.152670026e-1,1.283064816e0
3.159354583e-1,-1.426064730e0,-9.080777317e-2,7.894992083e-2,1.431132333e0
3.259684583e-1,-1.533553123e0,-1.686841995e-1,2.060820460e-1,1.556505494e0
3.360004583e-1,-1.569222689e0,-2.032487243e-1,2.124734968e-1,1.596532141e0
3.460334583e-1,-1.590077162e0,-2.472271025e-1,2.328307033e-1,1.625938731e0
3.560664583e-1,-1.635675073e0,-3.840177357e-1,2.934583724e-1,1.705585055e0
3.660984583e-1,-1.674380898e0,-6.098257899e-1,2.136032432e-1,1.794732635e0
3.761314583e-1,-1.700793505e0,-7.071375251e-1,1.601762176e-1,1.848891140e0
3.861634583e-1,-1.704191685e0,-6.903039217e-1,2.100399137e-1,1.850650039e0
3.961964583e-1,-1.684179664e0,-6.572731137e-1,1.952459216e-1,1.818403161e0
4.062284583e-1,-1.654700637e0,-6.178351641e-1,1.822464913e-1,1.775659954e0
4.162614583e-1,-1.626579881e0,-5.548022389e-1,1.796039343e-1,1.727954052e0
4.262934583e-1,-1.603822470e0,-4.951789081e-1,7.884483039e-2,1.680376497e0
4.363264583e-1,-1.578164220e0,-4.428489506e-1,7.924336940e-3,1.639140108e0
4.463584583e-1,-1.544229746e0,-4.025928676e-1,-6.222172454e-2,1.597059194e0
4.563914583e-1,-1.501075745e0,-3.616814613e-1,-1.046507135e-1,1.547576700e0
4.664244583e-1,-1.458256960e0,-4.245711863e-1,-9.945355356e-2,1.522059481e0
4.764564583e-1,-1.435745358e0,-5.415275097e-1,-1.109591499e-1,1.538482600e0
4.864894583e-1,-1.446657181e0,-6.522596478e-1,-8.438186347e-2,1.589144407e0
4.965214583e-1,-1.497476697e0,-6.473770142e-1,-1.005827859e-1,1.634518386e0
5.065544583e-1,-1.568796396e0,-6.029560566e-1,-7.340896130e-2,1.682280302e0
5.165864583e-1,-1.675083160e0,-4.681338966e-1,-2.432497442e-1,1.756195712e0
5.266194583e-1,-1.815448880e0,-3.588873148e-1,-2.259160280e-1,1.864321001e0
5.366514583e-1,-1.923009038e0,-2.514667213e-1,7.799676619e-3,1.939396841e0
5.466844583e-1,-2.027629375e0,-5.704131722e-2,-1.560638249e-1,2.034426335e0
5.567174583e-1,-2.207272291e0,1.194892153e-1,-2.206637561e-1,2.221490746e0
5.667494583e-1,-2.448398352e0,1.191368774e-1,-1.422957182e-1,2.455421788e0
5.767824583e-1,-2.733965635e0,9.545483440e-2,-9.966319799e-2,2.737446342e0
5.868144583e-1,-3.047050953e0,-1.267217193e-2,-8.748207241e-3,3.047089862e0
5.968474583e-1,-3.408952475e0,-1.494369376e-2,7.299901545e-2,3.409766729e0
6.068794583e-1,-3.798618793e0,2.435870282e-2,-3.658393398e-2,3.798873052e0
6.169124583e-1,-4.174830437e0,1.871969402e-1,-1.717033386e-1,4.182551124e0
6.269444583e-1,-4.591339111e0,2.852809131e-1,-1.336174756e-1,4.602133599e0
6.369774583e-1,-5.058485985e0,3.075472713e-1,-1.994402260e-1,5.071749421e0
6.470104583e-1,-5.554799557e0,3.028262854e-1,-1.817893386e-1,5.566017359e0
6.570424583e-1,-6.081852913e0,1.873814613e-1,-1.686409265e-1,6.087075359e0
6.670754583e-1,-6.625251293e0,1.402158141e-1,-1.360355765e-1,6.628131022e0
6.771074583e-1,-7.220261574e0,7.245459408e-2,-1.173984334e-1,7.221579415e0
6.871404583e-1,-7.808529854e0,5.670839176e-2,-1.191358790e-1,7.809644530e0
6.971724583e-1,-8.332781792e0,9.651859850e-2,-8.847007155e-2,8.333810364e0
7.072054583e-1,-8.816926003e0,1.491354704e-1,-3.086269274e-2,8.818241209e0
7.172374583e-1,-9.275033951e0,1.293689609e-1,6.825110316e-2,9.276187219e0
7.272704583e-1,-9.713614464e0,9.380217642e-2,7.498863339e-2,9.714356803e0
7.373034583e-1,-1.012551403e1,5.100006610e-2,4.972162656e-3,1.012564369e1
7.473354583e-1,-1.051567745e1,3.350735828e-2,2.560633421e-2,1.051576201e1
7.573684583e-1,-1.092424393e1,2.835169248e-2,1.433370113e-1,1.092522104e1
7.674004583e-1,-1.134241199e1,1.041641682e-1,2.652826309e-1,1.134599202e1
7.774334583e-1,-1.175890636e1,1.652780175e-1,3.853526711e-1,1.176637975e1
7.874654583e-1,-1.215010357e1,2.603414059e-1,3.976002932e-1,1.215939474e1
7.974984583e-1,-1.253146362e1,3.917543888e-1,4.086449444e-1,1.254424341e1
8.075304583e-1,-1.292414570e1,4.472946227e-1,3.996525407e-1,1.293805769e1
8.175634583e-1,-1.330659866e1,4.586157203e-1,4.529854059e-1,1.332220298e1
8.275964583e-1,-1.359333706e1,4.288921654e-1,5.396249890e-1,1.361080292e1
8.376289583e-1,-1.377863884e1,4.451236129e-1,4.322100282e-1,1.379260051e1
8.476619583e-1,-1.390173244e1,4.418159723e-1,3.826339543e-1,1.391401362e1
8.576939583e-1,-1.395319557e1,4.033541679e-1,4.072175622e-1,1.396496285e1
8.677269583e-1,-1.388323593e1,3.791684210e-1,3.714520931e-1,1.389337919e1
8.777589583e-1,-1.370420933e1,3.668465614e-1,2.674216032e-1,1.371172651e1
8.877919583e-1,-1.342085075e1,3.119097948e-1,1.653777957e-1,1.342549338e1
8.978239583e-1,-1.303122425e1,2.652116120e-1,1.494027376e-1,1.303477901e1
9.078569583e-1,-1.255388641e1,1.788613051e-1,1.645345539e-1,1.255623857e1
9.178889583e-1,-1.202115726e1,5.859369785e-2,1.823419780e-1,1.202268289e1
9.279219583e-1,-1.139904213e1,-3.880795836e-2,1.745740622e-1,1.140044489e1
9.379549583e-1,-1.072230339e1,-1.441542506e-1,1.137332618e-1,1.072387550e1
9.479869583e-1,-9.984938622e0,-1.852327138e-1,1.992843747e-1,9.988644788e0
9.580199583e-1,-9.210330009e0,-1.871991307e-1,2.396612465e-1,9.215349148e0
9.680519583e-1,-8.405723572e0,-2.322212011e-1,2.681514621e-1,8.413205136e0
9.780849583e-1,-7.616199017e0,-2.659091949e-1,1.786812246e-1,7.622933959e0
9.881169583e-1,-6.866471767e0,-2.001421452e-1,3.443801776e-2,6.869474317e0
9.981499583e-1,-6.118515968e0,-6.682159007e-2,8.174739778e-2,6.119426886e0
1.008181958e0,-5.343179226e0,7.131465711e-3,-1.083996445e-1,5.344283449e0
1.018214958e0,-4.574068546e0,4.117231071e-1,-6.560152173e-1,4.639178262e0
1.028247958e0,-3.931668282e0,7.150424719e-1,-1.037859440e0,4.128735088e0
1.038279958e0,-3.491953611e0,7.300773859e-1,-9.714680314e-1,3.697364352e0
1.048312958e0,-3.221016884e0,7.318270802e-1,-8.141160011e-1,3.401956129e0
1.058344958e0,-3.037056684e0,9.178150296e-1,-8.395504355e-1,3.281911435e0
1.068377958e0,-2.838458538e0,1.151383996e0,-1.030924439e0,3.231924686e0
1.078409958e0,-2.630259991e0,1.370100617e0,-1.311590910e0,3.242794171e0
1.088442958e0,-2.431709290e0,1.596066833e0,-1.601289272e0,3.320356417e0
1.098474958e0,-2.172577620e0,1.603376389e0,-1.780667305e0,3.234452876e0
1.108507958e0,-1.826121688e0,1.394459724e0,-1.800064087e0,2.918812954e0
1.118540958e0,-1.448312998e0,1.099438906e0,-1.447849393e0,2.324358903e0
1.128572958e0,-1.088444352e0,7.480915189e-1,-9.260972738e-1,1.613074142e0
1.138605958e0,-8.197506070e-1,4.944461286e-1,-3.245999217e-1,1.010857626e0
1.148637958e0,-6.696298122e-1,2.849522829e-1,3.306418657e-2,7.284882493e-1
1.158670958e0,-6.136562824e-1,1.264493316e-1,4.288748838e-3,6.265635321e-1
1.168702958e0,-5.536675453e-1,2.987219766e-2,1.466914266e-1,5.735490158e-1
1.178735958e0,-4.943125546e-1,-3.536475450e-2,2.795561552e-1,5.689878834e-1
1.188767958e0,-4.477442503e-1,-1.189256981e-1,2.898423374e-1,5.464675799e-1
1.198800958e0,-3.607693315e-1,-1.944573224e-1,3.223997951e-1,5.214496990e-1
1.208833958e0,-2.246341258e-1,-2.291955948e-1,3.959102333e-1,5.096430358e-1
1.218865958e0,-9.602480382e-2,-2.926767766e-1,5.528625846e-1,6.328803173e-1
1.228898958e0,-2.850541472e-2,-3.655677438e-1,5.930872560e-1,6.972838928e-1
1.238930958e0,-2.482603677e-2,-3.845034242e-1,6.455041766e-1,7.517545193e-1
1.248963958e0,-8.019155264e-2,-4.542159140e-1,7.928454280e-1,9.172495050e-1
1.258995958e0,-2.162718922e-1,-4.453266263e-1,8.413957357e-1,9.762356885e-1
1.269028958e0,-3.782181740e-1,-4.863901734e-1,9.221686125e-1,1.109062369e0
1.279060958e0,-5.531660914e-1,-5.014651418e-1,9.382339120e-1,1.199059167e0
1.289093958e0,-7.314857841e-1,-4.447571039e-1,8.320161104e-1,1.193788567e0
1.299125958e0,-8.754833937e-1,-4.903479517e-1,6.985350251e-1,1.222646093e0
1.309158958e0,-1.026646018e0,-4.832098782e-1,5.806201100e-1,1.274603289e0
1.319191958e0,-1.209163427e0,-3.350121677e-1,4.604452252e-1,1.336532511e0
1.329223958e0,-1.526719451e0,-1.228309125e-1,3.101835549e-1,1.562745518e0
1.339256958e0,-1.970990181e0,2.083651908e-2,4.027898312e-1,2.011834015e0
1.349288958e0,-2.484774113e0,1.313633025e-1,6.662762761e-1,2.575904265e0
1.359321958e0,-3.012333870e0,-9.592171991e-4,8.094252348e-1,3.119186669e0
1.369353958e0,-3.462447405e0,-1.895174086e-1,8.908948302e-1,3.580244751e0
1.379386958e0,-3.860785007e0,-3.093259633e-1,7.917215228e-1,3.953247576e0
1.389418958e0,-4.160824299e0,-3.772411048e-1,5.670138001e-1,4.216191925e0
1.399451958e0,-4.303902626e0,-4.115314782e-1,2.855535448e-1,4.332952434e0
1.409484958e0,-4.308221340e0,-3.598586917e-1,-4.178091884e-2,4.323426308e0
1.419516958e0,-4.242938042e0,-2.323118001e-1,-4.276936650e-1,4.270762680e0
1.429549958e0,-4.237821579e0,-9.926747531e-2,-8.100852370e-1,4.315695061e0
1.439581958e0,-4.339327335e0,-1.147960424e-1,-4.793497324e-1,4.367232078e0
1.449614958e0,-4.499401093e0,-1.602817625e-1,-1.394174844e-1,4.504413133e0
1.459646958e0,-4.628621578e0,-6.928612292e-2,-1.222723424e-1,4.630754669e0
1.469679958e0,-4.717102528e0,1.088034455e-2,-1.102907807e-1,4.718404253e0
1.479711958e0,-4.805439472e0,1.400751807e-2,-1.471209526e-1,4.807711442e0
1.489744958e0,-4.892975807e0,2.430329844e-2,-1.405767649e-1,4.895055130e0
1.499776958e0,-4.969605923e0,1.624526642e-2,-1.327891350e-1,4.971406229e0
1.509809958e0,-5.058838844e0,1.552115381e-2,-8.746106923e-2,5.059618642e0
1.519842958e0,-5.155239582e0,2.902217209e-2,-1.267768629e-2,5.155336862e0
1.529874958e0,-5.249353886e0,3.082513064e-2,4.231791943e-2,5.249614958e0
1.539907958e0,-5.337957859e0,3.688737378e-2,9.006414562e-2,5.338845037e0
1.549939958e0,-5.423276901e0,-3.130085766e-3,9.705734253e-2,5.424146225e0
1.559972958e0,-5.510674477e0,-6.981738843e-4,2.079303116e-1,5.514595968e0
1.570004958e0,-5.611319065e0,8.605270088e-2,1.836769134e-1,5.614983876e0
1.580037958e0,-5.698534489e0,9.543693066e-2,1.874126792e-1,5.702414141e0
1.590069958e0,-5.742250443e0,5.368362367e-2,1.802679449e-1,5.745330157e0
1.600102958e0,-5.765043259e0,4.580690339e-2,1.265603751e-1,5.766614221e0
1.610134958e0,-5.774938583e0,3.665867820e-2,1.829618663e-1,5.777952453e0
1.620167958e0,-5.751082420e0,1.470128074e-2,2.096345723e-1,5.754920659e0
1.630200958e0,-5.698751450e0,-2.738962648e-3,2.551198006e-1,5.704459808e0
1.640232958e0,-5.592116833e0,-5.110077327e-4,3.017377555e-1,5.600251477e0
1.650265958e0,-5.452971935e0,-3.139547771e-3,2.614747286e-1,5.459238209e0
1.660297958e0,-5.302278042e0,-1.291643828e-2,1.632733196e-1,5.304807013e0
1.670330958e0,-5.165771484e0,-3.032445721e-2,8.039788157e-2,5.166486081e0
1.680362958e0,-5.028590202e0,-2.851393260e-2,2.421429940e-2,5.028729342e0
1.690395958e0,-4.902148247e0,-1.372619811e-2,2.123475447e-2,4.902213455e0
1.700427958e0,-4.776692867e0,-6.804590113e-3,2.739779651e-2,4.776776286e0
1.710460958e0,-4.644514561e0,-6.063489709e-4,5.883321539e-2,4.644887213e0
1.720493958e0,-4.506796837e0,1.928105019e-2,1.029785946e-1,4.508014427e0
1.730525958e0,-4.342222214e0,2.447022125e-2,3.251951635e-1,4.354451107e0
1.740558958e0,-4.198898792e0,2.660774812e-2,4.995509982e-1,4.228594357e0
1.750590958e0,-4.076374531e0,3.898708383e-3,4.943157434e-1,4.106238250e0
1.760623958e0,-3.959624290e0,-4.263742641e-2,3.779562414e-1,3.977850348e0
1.770655958e0,-3.833736897e0,-1.006128490e-1,2.438432127e-1,3.842801198e0
1.780688958e0,-3.678200006e0,-1.267470866e-1,1.467437446e-1,3.683307459e0
1.790720958e0,-3.486263037e0,-1.294350177e-1,1.518796533e-1,3.491969475e0
1.800753958e0,-3.288255453e0,-1.092170402e-1,1.935730875e-1,3.295758308e0
1.810785958e0,-3.069242001e0,-1.155503020e-1,1.877910942e-1,3.077151902e0
1.820818958e0,-2.854313374e0,-1.161054596e-1,1.322904229e-1,2.859735314e0
1.830851958e0,-2.664470911e0,-1.143749356e-1,5.906574428e-2,2.667578607e0
1.840883958e0,-2.497071505e0,-1.105146855e-1,3.007031046e-2,2.499696745e0
1.850916958e0,-2.339305878e0,-1.087282375e-1,6.148362905e-2,2.342638268e0
1.860948958e0,-2.179924726e0,-1.125827208e-1,1.250648946e-1,2.186409822e0
1.870981958e0,-1.995442271e0,-1.248218119e-1,1.608191729e-1,2.005799878e0
1.881013958e0,-1.785795450e0,-1.606873721e-1,1.451769918e-1,1.798878034e0
1.891046958e0,-1.582736969e0,-1.715085953e-1,9.105358273e-2,1.594604110e0
1.901078958e0,-1.411923051e0,-1.482552439e-1,-2.178815566e-2,1.419852472e0
1.911111958e0,-1.292847753e0,-1.204457209e-1,-8.584010601e-2,1.301280526e0
1.921144958e0,-1.173592567e0,-4.873356968e-2,-1.451184899e-1,1.183534474e0
1.931176958e0,-1.044205308e0,2.373956516e-2,-1.096640974e-1,1.050216409e0
1.941209958e0,-9.296638966e-1,9.034294635e-2,-2.014863677e-2,9.342605504e-1
1.951241958e0,-8.201802969e-1,1.376582533e-1,6.023621932e-2,8.338308679e-1
1.961274958e0,-6.908774376e-1,1.558037549e-1,9.570193291e-2,7.146644694e-1
1.971306958e0,-5.602936149e-1,1.240407676e-1,8.785653114e-2,5.805461368e-1
1.981339958e0,-4.511022568e-1,3.054741398e-2,1.139411926e-1,4.662713651e-1
1.991371958e0,-3.552409708e-1,-5.074264854e-2,8.584058285e-2,3.689709601e-1
2.001404958e0,-2.807170153e-1,-1.020486951e-1,3.851058707e-2,3.011628200e-1
2.011436958e0,-1.944295466e-1,-1.215930954e-1,6.279302388e-2,2.377618415e-1
2.021469958e0,-1.026229784e-1,-7.906190306e-2,-2.764105052e-2,1.324624018e-1
2.031502958e0,-2.921880037e-2,-3.864017874e-2,1.495248266e-2,5.069889984e-2
2.041534958e0,1.682447270e-2,1.614699699e-2,2.776032500e-2,3.625498638e-2
2.051567958e0,4.091569036e-2,5.739096552e-3,-1.631152816e-2,4.441955536e-2
2.061599958e0,5.398503318e-2,-4.242176563e-2,-3.005735017e-2,7.494954507e-2
2.071632958e0,6.604862213e-2,-1.010057703e-2,-8.525694720e-3,6.735821859e-2
2.081664958e0,1.004768014e-1,2.685382217e-2,-5.538894795e-3,1.041508269e-1
2.091697958e0,1.866287440e-1,2.345403098e-2,5.076938495e-2,1.948278987e-1
2.101729958e0,3.399828374e-1,3.743590321e-3,1.682972014e-1,3.793761883e-1
2.111762958e0,4.628640115e-1,1.731718890e-2,-3.231020272e-2,4.643133935e-1
2.121794958e0,5.275985003e-1,5.082343891e-2,-6.254315376e-2,5.337179456e-1
2.131827958e0,5.670390725e-1,5.397129431e-2,-1.158740222e-1,5.812684401e-1
2.141860958e0,6.033466458e-1,9.069879353e-2,-7.798650116e-2,6.150897012e-1
2.151892958e0,6.237243414e-1,1.009429023e-1,-1.379605755e-2,6.319903914e-1
2.161925958e0,6.209380627e-1,1.084886491e-1,-3.049518680e-3,6.303516195e-1
2.171957958e0,6.180633903e-1,9.503968060e-2,3.912802786e-2,6.265507943e-1
2.181990958e0,5.930159688e-1,4.996146634e-2,-8.925849199e-2,6.017733508e-1
2.192022958e0,5.423045754e-1,8.088476211e-2,-3.518246859e-2,5.494309815e-1
2.202055958e0,4.672327042e-1,1.053124964e-1,2.454669680e-3,4.789604860e-1
2.212087958e0,3.553668857e-1,1.450468749e-1,-5.124557763e-2,3.872342038e-1
2.222120958e0,2.136513740e-1,1.750380099e-1,6.152690947e-2,2.829677987e-1
2.232152958e0,4.466394708e-2,1.825723499e-1,8.149262518e-2,2.048623418e-1
2.242185958e0,-1.302839220e-1,1.679001004e-1,1.106380075e-1,2.395936408e-1
2.252218958e0,-2.967154980e-1,1.194401607e-1,1.383929551e-1,3.485091803e-1
2.262250958e0,-4.583086967e-1,6.629090756e-2,9.822858125e-2,4.733816643e-1
2.272283958e0,-6.126263738e-1,1.550974883e-2,1.246913448e-1,6.253795309e-1
2.282315958e0,-7.565510869e-1,-5.853434093e-3,1.008896306e-1,7.632709397e-1
2.292348958e0,-8.970453143e-1,-1.578276418e-2,8.163896948e-2,9.008908441e-1
2.302380958e0,-1.026198387e0,1.029152423e-3,6.016536057e-2,1.027961118e0
2.312413958e0,-1.143602490e0,2.834466286e-2,3.110494837e-2,1.144376509e0
2.322445958e0,-1.239862323e0,5.890963972e-2,4.610018432e-2,1.242116803e0
2.332478958e0,-1.316798091e0,6.586422026e-2,7.800112665e-2,1.320749592e0
2.342510958e0,-1.389409781e0,5.510170385e-2,8.851996064e-2,1.393316733e0
2.352543958e0,-1.431889534e0,2.850018814e-2,1.044408679e-1,1.435976251e0
2.362576958e0,-1.444680452e0,-2.505621640e-3,9.802091867e-2,1.448004140e0
2.372608958e0,-1.421408176e0,-2.471638471e-2,5.210483074e-2,1.422577596e0
2.382641958e0,-1.358738303e0,-3.205045685e-2,4.528604448e-3,1.359123805e0
2.392673958e0,-1.261734247e0,-3.530351073e-2,-4.293930903e-2,1.262958207e0
2.402706958e0,-1.160987735e0,-2.837614343e-2,-7.278930396e-2,1.163613342e0
2.412738958e0,-1.067080140e0,-2.114140056e-2,4.795069620e-2,1.068366161e0
2.422771958e0,-9.921385050e-1,-2.178381011e-2,9.266539663e-2,9.966946489e-1
2.432803958e0,-9.379434586e-1,-2.634021267e-2,6.119882315e-2,9.403068830e-1
2.442836958e0,-8.749166131e-1,-2.729926631e-2,-1.020293683e-3,8.753430018e-1
2.452868958e0,-7.951573133e-1,-7.500794716e-3,-4.388147220e-2,7.964025355e-1
2.462901958e0,-6.991093159e-1,9.271742776e-3,-7.373299450e-2,7.030479039e-1
2.472934958e0,-6.123869419e-1,2.015315183e-2,-8.504503965e-2,6.185924142e-1
2.482966958e0,-5.354145765e-1,2.708099224e-2,-8.649944514e-2,5.430325063e-1
2.492999958e0,-4.606391191e-1,3.969239071e-2,-9.092642367e-2,4.712021843e-1
2.503031958e0,-3.820813000e-1,5.088416487e-2,-8.282969892e-2,3.942538232e-1
2.513064958e0,-3.024450541e-1,5.390072614e-2,-7.568923384e-2,3.163971541e-1
2.523096958e0,-2.229514122e-1,5.393002182e-2,-7.797308266e-2,2.422717092e-1
2.533129958e0,-1.439791024e-1,4.598288238e-2,-1.014344692e-1,1.820257096e-1
2.543161958e0,-8.078946173e-2,3.111146018e-2,-1.177262887e-1,1.461312394e-1
2.553194958e0,-3.347760811e-2,1.549388468e-2,-1.212067679e-1,1.266960587e-1
2.563226958e0,-7.832131814e-4,-6.828908809e-4,-1.242674291e-1,1.242717736e-1
2.573259958e0,1.999184117e-2,-8.703533560e-3,-1.082517058e-1,1.104257987e-1
2.583292958e0,3.640277311e-2,-4.665648565e-3,-8.316872269e-2,9.090636172e-2
2.593324958e0,4.084013030e-2,-6.004419178e-3,-4.578992724e-2,6.164970989e-2
2.603357958e0,4.079867899e-2,-1.242817380e-2,-1.949190162e-2,4.689270669e-2
2.613389958e0,2.532571368e-2,-1.685381494e-2,-7.644030266e-3,3.136676665e-2
2.623422958e0,3.855034336e-2,-2.290750295e-2,6.581276655e-2,7.963794891e-2
2.633454958e0,2.516156808e-2,-6.121598184e-3,-2.258078903e-1,2.272878831e-1
2.643487958e0,-4.395434808e-4,-4.178829025e-3,-2.212768793e-1,2.213167710e-1
2.653519958e0,-7.825586363e-4,-1.182316616e-2,-3.191626966e-1,3.193825708e-1
2.663552958e0,5.328280851e-3,-2.927605249e-2,-4.281548560e-1,4.291876728e-1
2.673584958e0,2.058451995e-3,-5.013366416e-2,-4.052575231e-1,4.083519089e-1
2.683617958e0,1.013559848e-2,-7.130123675e-2,-4.163247645e-1,4.225078771e-1
2.693650958e0,3.851344436e-2,-7.241417468e-2,-3.638873696e-1,3.730162408e-1
2.703682958e0,7.144999504e-2,-7.427942008e-2,-3.433341980e-1,3.584702297e-1
2.713715958e0,9.666506946e-2,-7.526665181e-2,-3.588188887e-1,3.791572225e-1
2.723747958e0,8.152259886e-2,-6.406974792e-2,-3.542500436e-1,3.691123950e-1
2.733780958e0,5.473253503e-2,-4.538367689e-2,-3.614387214e-1,3.683656850e-1
2.743812958e0,2.948184963e-3,-2.912028134e-2,-3.528767526e-1,3.540885272e-1
2.753845958e0,-7.127091289e-2,2.752164146e-3,-2.956568599e-1,3.041382847e-1
2.763877958e0,-1.725114882e-1,4.288114607e-2,-2.274287343e-1,2.886569511e-1
2.773910958e0,-3.002998233e-1,7.372960448e-2,-1.367118806e-1,3.380919649e-1
2.783942958e0,-4.608791769e-1,1.013273671e-1,-1.641978696e-2,4.721720665e-1
2.793975958e0,-6.341372132e-1,1.195194200e-1,7.061071694e-2,6.491538880e-1
2.804008958e0,-8.103816509e-1,1.665249020e-1,1.176892146e-1,8.356432937e-1
2.814040958e0,-9.847955704e-1,1.693880707e-1,1.551867872e-1,1.011235666e0
2.824073958e0,-1.159419775e0,1.880880296e-1,8.975020796e-2,1.178001028e0
2.834105792e0,-1.320406199e0,1.981286705e-1,1.244024187e-2,1.335246142e0
2.844138792e0,-1.476616025e0,2.015787661e-1,5.845585838e-3,1.490323138e0
2.854170792e0,-1.628030300e0,1.846469194e-1,-3.250180185e-2,1.638790258e0
2.864203792e0,-1.757798910e0,1.654177606e-1,-2.477723546e-2,1.765738926e0
2.874235792e0,-1.862517595e0,1.553070694e-1,-2.272724872e-3,1.868982944e0
2.884268792e0,-1.943385839e0,1.500554830e-1,-3.065264551e-3,1.949172790e0
2.894300792e0,-2.005009174e0,1.710875183e-1,3.942577634e-3,2.012299250e0
2.904333792e0,-2.050074816e0,1.870014071e-1,1.714410027e-3,2.058586703e0
2.914366792e0,-2.092140675e0,1.924342662e-1,1.841296256e-2,2.101052733e0
2.924398792e0,-2.126868010e0,1.845089644e-1,2.894176915e-2,2.135052391e0
2.934431792e0,-2.143364906e0,1.674077362e-1,2.878810652e-2,2.150085400e0
2.944463792e0,-2.135261297e0,1.439190358e-1,3.778725490e-2,2.140439528e0
2.954496792e0,-2.105436802e0,1.321475953e-1,7.947292179e-2,2.111076280e0
2.964528792e0,-2.054446936e0,1.340417117e-1,1.900992990e-1,2.067572764e0
2.974561792e0,-1.994109988e0,1.473492533e-1,2.021754086e-1,2.009741611e0
2.984593792e0,-1.952323079e0,1.711813956e-1,1.764882803e-1,1.967744035e0
2.994626792e0,-1.922706366e0,1.829307228e-1,1.487381458e-1,1.937107755e0
3.004658792e0,-1.908891678e0,1.817733943e-1,1.287726313e-1,1.921845830e0
3.014691792e0,-1.893602490e0,1.725098640e-1,8.950884640e-2,1.903549810e0
3.024724792e0,-1.874410272e0,1.572702527e-1,5.330852792e-2,1.881751737e0
3.034756792e0,-1.831890464e0,1.406092495e-1,3.761079162e-2,1.837663790e0
3.044789792e0,-1.778932452e0,1.285462677e-1,5.853943899e-2,1.784531221e0
3.054821792e0,-1.712311625e0,1.217759699e-1,9.029390663e-2,1.719009447e0
3.064854792e0,-1.637506127e0,1.214832887e-1,1.281640530e-1,1.647000465e0
3.074886792e0,-1.560659051e0,1.309351176e-1,1.476104558e-1,1.573082809e0
3.084919792e0,-1.479344845e0,1.376292855e-1,1.701263785e-1,1.495441732e0
3.094951792e0,-1.418893814e0,1.278133988e-1,1.963265538e-1,1.438102930e0
3.104984792e0,-1.364323616e0,1.054414064e-1,1.960697472e-1,1.382367594e0
3.115016792e0,-1.320484281e0,8.585306257e-2,1.577854753e-1,1.332646142e0
3.125049792e0,-1.261373639e0,7.828770578e-2,1.002108902e-1,1.267767583e0
3.135082792e0,-1.187834620e0,7.121755183e-2,6.288056076e-2,1.191627874e0
3.145114792e0,-1.105373383e0,7.008974254e-2,5.941352621e-2,1.109185672e0
3.155147792e0,-1.011336088e0,6.390428543e-2,6.608421355e-2,1.015505571e0
3.165179792e0,-9.156968594e-1,6.674865633e-2,9.098429978e-2,9.226235766e-1
3.175212792e0,-8.174049258e-1,6.420560181e-2,1.074828506e-1,8.269375643e-1
3.185244792e0,-7.254810929e-1,4.782806337e-2,1.243718043e-1,7.376168962e-1
3.195277792e0,-6.414282322e-1,2.063319646e-2,1.463905573e-1,6.582447122e-1
3.205309792e0,-5.736163855e-1,-1.921793446e-3,1.524467319e-1,5.935313446e-1
3.215342792e0,-5.139793754e-1,-6.808427628e-3,1.374528706e-1,5.320849976e-1
3.225374792e0,-4.552306831e-1,3.578740638e-3,1.215909496e-1,4.712028663e-1
3.235407792e0,-3.815159798e-1,1.559252664e-2,1.109199226e-1,3.976189117e-1
3.245439792e0,-2.971207201e-1,2.790001966e-2,1.199370623e-1,3.216271636e-1
3.255472792e0,-2.002018988e-1,3.716355935e-2,1.486432850e-1,2.521046541e-1
3.265505792e0,-9.648138285e-2,1.435570698e-2,1.708751768e-1,1.967563712e-1
3.275537792e0,-1.126106363e-3,-1.870584115e-2,1.909351796e-1,1.918525981e-1
3.285570792e0,9.238490462e-2,-4.678330198e-2,2.124328464e-1,2.363289280e-1
3.295602792e0,1.829704791e-1,-7.228733599e-2,2.238937616e-1,2.980470964e-1
3.305635792e0,2.687118351e-1,-9.223362803e-2,2.031261921e-1,3.492468216e-1
3.315667792e0,3.614295125e-1,-9.939832985e-2,1.698175073e-1,4.115207240e-1
3.325700792e0,4.629968703e-1,-1.097878888e-1,1.522464454e-1,4.995983012e-1
3.335732792e0,5.946843028e-1,-1.178391576e-1,1.478815228e-1,6.240227815e-1
3.345765792e0,7.454420924e-1,-1.359245479e-1,1.119298786e-1,7.659554123e-1
3.355797792e0,9.329110384e-1,-1.713456511e-1,7.459342480e-2,9.514444370e-1
3.365830792e0,1.171988487e0,-2.055797875e-1,1.095194649e-2,1.189932775e0
3.375863792e0,1.478546262e0,-2.409920990e-1,-2.244702168e-2,1.498225654e0
3.385895792e0,1.862085819e0,-2.713652849e-1,-2.564507304e-3,1.881756970e0
3.395928792e0,2.308305264e0,-2.785965502e-1,3.474691510e-2,2.325316446e0
3.405960792e0,2.808000565e0,-2.577864826e-1,1.311839521e-1,2.822858528e0
3.415993792e0,3.359704018e0,-2.140379548e-1,1.495853215e-1,3.369836658e0
3.426025792e0,3.977453947e0,-1.502646655e-1,2.707879059e-2,3.980383478e0
3.436058792e0,4.689007759e0,-1.106035486e-1,-2.077001631e-1,4.694908547e0
3.446090792e0,5.515279770e0,-2.507393062e-2,-4.047704339e-1,5.530169866e0
3.456123792e0,6.429753304e0,1.717737410e-3,-3.498565853e-1,6.439264719e0
3.466155792e0,7.397770405e0,-5.646584183e-2,4.401472956e-2,7.398116831e0
3.476188792e0,8.411384583e0,-2.039479613e-1,5.272708535e-1,8.430361791e0
3.486221792e0,9.537073135e0,-4.107158184e-1,5.778034329e-1,9.563383725e0
3.496253792e0,1.080216599e1,-6.077167392e-1,1.122040376e-1,1.081982899e1
3.506286792e0,1.217386246e1,-7.506386638e-1,-4.055230319e-1,1.220372216e1
3.516318792e0,1.361843491e1,-8.518393040e-1,-2.788713574e-1,1.364789979e1
3.526351792e0,1.508810902e1,-9.169864655e-1,1.846779287e-1,1.511707656e1
3.536383792e0,1.665289307e1,-9.302101135e-1,2.412935346e-1,1.668059834e1
3.546416792e0,1.836882019e1,-1.098343492e0,1.898434907e-1,1.840260727e1
3.556448792e0,2.015374374e1,-1.241323590e0,-1.220947783e-2,2.019193949e1
3.566481792e0,2.202294350e1,-1.460504413e0,3.345083073e-2,2.207134414e1
3.576513792e0,2.398538589e1,-1.684849381e0,2.562631369e-1,2.404585463e1
3.586546792e0,2.606780052e1,-1.888953805e0,3.479026556e-1,2.613846604e1
3.596578792e0,2.813164520e1,-1.919630766e0,-4.996028170e-2,2.819710872e1
3.606611792e0,3.010458946e1,-1.764325500e0,-1.637646407e-1,3.015669030e1
3.616644792e0,3.202594376e1,-1.576969147e0,2.489101887e-2,3.206475518e1
3.626676792e0,3.364528275e1,-1.077677488e0,5.251510143e-1,3.366663368e1
3.636709792e0,3.498865509e1,-7.814857364e-1,1.300906897e0,3.502155142e1
3.646741792e0,3.559769821e1,-3.144397140e-1,2.246381283e0,3.566989233e1
3.656774792e0,3.560028458e1,1.571360677e-1,3.245852947e0,3.574829388e1
3.666806792e0,3.559597015e1,1.530219197e0,4.654747963e0,3.593162034e1
3.676839792e0,3.559546661e1,1.873154163e0,5.615379333e0,3.608432395e1
3.686871792e0,3.559103394e1,2.890614510e0,5.806485653e0,3.617723904e1
3.696904792e0,3.558563232e1,4.593922615e0,6.975791931e0,3.655274307e1
3.706937792e0,3.558042908e1,5.781181812e0,7.648183823e0,3.684947370e1
3.716969792e0,3.557098007e1,7.683469296e0,7.454491138e0,3.714700206e1
3.727002792e0,3.556132507e1,9.760126114e0,7.399245262e0,3.761139100e1
3.737034792e0,3.555755997e1,1.043099117e1,6.951435566e0,3.770236205e1
3.747067792e0,3.554732895e1,1.238183403e1,6.355549335e0,3.817480081e1
3.757099792e0,3.553610229e1,1.445829678e1,5.995547295e0,3.883044552e1
3.767132792e0,3.526750565e1,1.642704582e1,5.849753380e0,3.934290792e1
3.777164792e0,3.419000244e1,1.816102791e1,5.707518101e0,3.913253077e1
3.787197792e0,3.303179932e1,1.976373672e1,5.515419960e0,3.888605036e1
3.797229792e0,3.181416130e1,2.129961777e1,5.301058292e0,3.865120691e1
3.807262792e0,3.054493332e1,2.277728844e1,5.166899204e0,3.845119852e1
3.817295792e0,2.923390198e1,2.418334579e1,5.099236488e0,3.828129375e1
3.827327792e0,2.786840057e1,2.553245163e1,5.066521645e0,3.813428219e1
3.837360917e0,2.644850922e1,2.683597374e1,5.081675053e0,3.801994934e1
3.847392917e0,2.495186615e1,2.810499573e1,5.150371075e0,3.793432129e1
3.857425917e0,2.337892532e1,2.932655525e1,5.275252819e0,3.787412421e1
3.867457917e0,2.170080757e1,3.049538040e1,5.457604885e0,3.782431396e1
3.877490917e0,1.989545250e1,3.160132027e1,5.682645321e0,3.777254202e1
3.887522917e0,1.795712852e1,3.265054703e1,5.945974827e0,3.773421925e1
3.897555917e0,1.586336231e1,3.361446381e1,6.246065617e0,3.769073860e1
3.907587917e0,1.361012363e1,3.448311615e1,6.583700180e0,3.765190397e1
3.917620917e0,1.118635082e1,3.464130783e1,6.946873188e0,3.705959660e1
3.927653917e0,8.593132019e0,3.464227295e1,7.320291042e0,3.643508822e1
3.937685917e0,5.840153694e0,3.464318466e1,7.552464485e0,3.593462618e1
3.947718917e0,3.018990278e0,3.464460754e1,7.563119888e0,3.558881730e1
3.957750917e0,1.998960674e-1,3.464588165e1,7.581291676e0,3.546622418e1
3.967783917e0,-2.602905512e0,3.464704132e1,7.654946804e0,3.557795385e1
3.977815917e0,-5.431475163e0,3.464891434e1,8.059820175e0,3.598623193e1
3.987848917e0,-8.343958855e0,3.464974213e1,8.385972977e0,3.661353331e1
3.997880917e0,-1.122481823e1,3.390726852e1,8.330875397e0,3.667564434e1
4.007913917e0,-1.396569157e1,3.265791702e1,8.139328957e0,3.643938475e1
4.017946917e0,-1.652094650e1,3.114313126e1,7.946844101e0,3.613846467e1
4.027978917e0,-1.888656807e1,2.940994835e1,7.944184780e0,3.584351527e1
4.038011917e0,-2.111453056e1,2.758620262e1,8.094142914e0,3.566983495e1
4.048043917e0,-2.322217941e1,2.570516586e1,8.190216064e0,3.559641566e1
4.058076917e0,-2.517638016e1,2.370648193e1,8.227437019e0,3.554628143e1
4.068108917e0,-2.696088982e1,2.158706474e1,8.307480812e0,3.552330476e1
4.078141917e0,-2.858461571e1,1.933735275e1,8.430624962e0,3.552589061e1
4.088173917e0,-3.003612328e1,1.695598602e1,8.587908745e0,3.554470903e1
4.098206917e0,-3.130018425e1,1.443362999e1,8.788010597e0,3.557049816e1
4.108238917e0,-3.237590790e1,1.177557564e1,9.023484230e0,3.561301534e1
4.118271917e0,-3.324218750e1,8.979793549e0,9.297235489e0,3.566676758e1
4.128303917e0,-3.387271118e1,6.055617809e0,9.594957352e0,3.572246179e1
4.138336917e0,-3.423573685e1,3.015486717e0,9.912282944e0,3.576915138e1
4.148369917e0,-3.427721405e1,-7.627502084e-2,1.040545368e1,3.582187442e1
4.158401917e0,-3.400004196e1,-2.807809114e0,1.121002197e1,3.591032217e1
4.168434917e0,-3.344892502e1,-5.103731155e0,1.169273758e1,3.579942414e1
4.178466917e0,-3.265955353e1,-7.319042206e0,1.154303265e1,3.540418645e1
4.188499917e0,-3.166492271e1,-9.785917282e0,1.112882710e1,3.496115416e1
4.198531917e0,-3.044297028e1,-1.240467834e1,1.082889652e1,3.461091568e1
4.208564917e0,-2.897723579e1,-1.502009106e1,1.057262325e1,3.430836184e1
4.218596917e0,-2.728324699e1,-1.755279922e1,1.036485863e1,3.405740186e1
4.228629917e0,-2.536512375e1,-1.994101524e1,1.026022720e1,3.385713889e1
4.238661917e0,-2.321884346e1,-2.213319016e1,1.021140575e1,3.366401054e1
4.248694917e0,-2.088134956e1,-2.413473320e1,1.017262173e1,3.349624366e1
4.258727917e0,-1.837503242e1,-2.594251251e1,1.019098854e1,3.338430798e1
4.268759917e0,-1.568411922e1,-2.752968979e1,1.024945927e1,3.330055301e1
4.278792917e0,-1.283125782e1,-2.887662506e1,1.034864616e1,3.325049067e1
4.288824917e0,-9.830599785e0,-2.993062019e1,1.045851994e1,3.319432717e1
4.298857917e0,-6.719316959e0,-3.068256569e1,1.056687546e1,3.313952194e1
4.308889917e0,-3.519467115e0,-3.110326385e1,1.067582893e1,3.307223903e1
4.318922917e0,-2.722694874e-1,-3.117206764e1,1.069989014e1,3.295845234e1
4.328954917e0,2.878894806e0,-3.087258339e1,1.031617165e1,3.267763513e1
4.338987917e0,5.896831989e0,-3.015769768e1,1.005355644e1,3.233161539e1
4.349019917e0,8.857915878e0,-2.910671997e1,1.021978760e1,3.209529373e1
4.359052917e0,1.178858089e1,-2.783071899e1,1.051559448e1,3.200152007e1
4.369085917e0,1.462841606e1,-2.635209846e1,1.063256931e1,3.196052534e1
4.379117917e0,1.727051735e1,-2.465148735e1,1.057904434e1,3.190427522e1
4.389150917e0,1.966287231e1,-2.268471336e1,1.048502731e1,3.179875101e1
4.399182917e0,2.180675697e1,-2.046791077e1,1.048556042e1,3.169253852e1
4.409215917e0,2.371388245e1,-1.808302116e1,1.058472538e1,3.164459332e1
4.419247917e0,2.536184502e1,-1.556081390e1,1.059078884e1,3.158364957e1
4.429280917e0,2.676063156e1,-1.286571312e1,1.065324593e1,3.154599221e1
4.439312917e0,2.789967346e1,-1.003760910e1,1.072419262e1,3.153020271e1
4.449345917e0,2.877965164e1,-7.110726357e0,1.080486393e1,3.155274730e1
4.459377917e0,2.936696243e1,-4.105195999e0,1.090812492e1,3.159522600e1
4.469410917e0,2.962644958e1,-1.062348366e0,1.101259899e1,3.162487052e1
4.479443917e0,2.950738144e1,1.993312836e0,1.112564373e1,3.159808228e1
4.489475917e0,2.904588509e1,4.902424812e0,1.158903503e1,3.165443006e1
4.499508917e0,2.823405457e1,7.417351246e0,1.194937038e1,3.154308782e1
4.509540917e0,2.709857750e1,9.818297386e0,1.176542473e1,3.113128788e1
4.519573917e0,2.571155548e1,1.233237076e1,1.146833134e1,3.073587606e1
4.529605917e0,2.408596611e1,1.482927608e1,1.130502701e1,3.046054544e1
4.539638917e0,2.226066780e1,1.717408752e1,1.119859123e1,3.026375817e1
4.549670917e0,2.021822739e1,1.930389023e1,1.109497643e1,3.007516248e1
4.559703917e0,1.798336983e1,2.120426369e1,1.097423935e1,2.989073967e1
4.569735917e0,1.558921909e1,2.285149384e1,1.095368004e1,2.975227099e1
4.579768917e0,1.275810623e1,1.379446602e1,1.067227745e1,2.160912014e1
4.589801917e0,1.028093719e1,-3.394449997e1,3.510278940e0,3.564055002e1
4.599833917e0,1.153096676e1,-2.191463852e1,-3.673118114e0,2.503410419e1
4.609866917e0,7.318634033e0,-3.460010529e1,-9.252660751e0,3.655600390e1
4.619898917e0,1.313367081e1,-3.301409149e1,-1.633169556e1,3.910431978e1
4.629931917e0,1.760249519e1,1.574659157e1,-1.454034996e1,2.773490148e1
4.639963917e0,2.583500147e0,-4.656421185e0,5.712708950e0,7.809723094e0
4.649996917e0,-4.298799857e-2,-6.417127609e0,5.977695942e0,8.770075456e0
4.660028917e0,1.038326025e0,-8.495633006e-1,1.405709386e0,1.943166903e0
4.670061917e0,7.620972991e-1,3.221843481e0,-1.287578225e0,3.552312683e0
4.680094917e0,7.923097610e-1,3.861644030e0,-3.128603697e0,5.032714025e0
4.690126917e0,1.093931437e0,3.721722841e0,-3.389689684e0,5.151495225e0
4.700159917e0,1.133863926e0,3.666244030e0,-3.259038210e0,5.034711784e0
4.710191917e0,1.254996061e0,3.635588646e0,-2.641545296e0,4.665863421e0
4.720224917e0,1.291256070e0,3.582269669e0,-2.531145096e0,4.572383811e0
4.730256917e0,1.389329076e0,3.553728342e0,-2.500696421e0,4.562094146e0
4.740289917e0,1.452799916e0,3.508988857e0,-2.511045933e0,4.552909188e0
4.750321917e0,1.542957067e0,3.469431639e0,-2.492321253e0,4.541953064e0
4.760354917e0,1.615937829e0,3.429890871e0,-2.492424250e0,4.537354416e0
4.770386917e0,1.686139345e0,3.395391464e0,-2.486022472e0,4.533437638e0
4.780419917e0,1.759538651e0,3.361049414e0,-2.483016968e0,4.534093370e0
4.790451917e0,1.834829330e0,3.318132639e0,-2.482766867e0,4.532188676e0
4.800484917e0,1.910927892e0,3.267849684e0,-2.478348494e0,4.524676587e0
4.810517917e0,1.981348872e0,3.221935749e0,-2.481540203e0,4.523787694e0
4.820549917e0,2.049906731e0,3.176181555e0,-2.479120970e0,4.520651242e0
4.830582917e0,2.123264313e0,3.128989458e0,-2.475409031e0,4.519565935e0
4.840614417e0,2.190599918e0,3.078425884e0,-2.475813150e0,4.517198765e0
4.850647417e0,2.264000416e0,3.020468950e0,-2.475618362e0,4.514157379e0
4.860679417e0,2.335121870e0,2.965937853e0,-2.475861788e0,4.514362977e0
4.870712417e0,2.401228428e0,2.909166813e0,-2.473587036e0,4.510851620e0
4.880744417e0,2.467017174e0,2.850555658e0,-2.472593069e0,4.508387492e0
4.890777417e0,2.532233715e0,2.793386459e0,-2.473299503e0,4.509149136e0
4.900809417e0,2.598726034e0,2.726663351e0,-2.471464872e0,4.505131368e0
4.910842417e0,2.662584782e0,2.666501760e0,-2.470067024e0,4.505643180e0
4.920875417e0,2.722203493e0,2.602334499e0,-2.470656395e0,4.504073681e0
4.930907417e0,2.781357527e0,2.538355589e0,-2.473205090e0,4.505101797e0
4.940940417e0,2.837614536e0,2.471405268e0,-2.469954729e0,4.501175026e0
4.950972417e0,2.895237684e0,2.400613308e0,-2.471335173e0,4.500315882e0
4.961005417e0,2.950303555e0,2.329823732e0,-2.470904589e0,4.498637480e0
4.971037417e0,2.998692513e0,2.260372639e0,-2.470029593e0,4.494717726e0
4.981070417e0,3.093415737e0,1.218560815e0,-1.801647782e0,3.781540177e0
4.991102417e0,3.388200521e0,1.000342846e0,-2.265568525e-1,3.540044716e0
5.001135417e0,3.463480234e0,1.307662487e0,1.447048664e0,3.974874381e0
5.011167417e0,3.531969070e0,6.867929697e-1,3.171391010e0,4.796270534e0
5.021200417e0,3.638038635e0,1.100551844e0,4.791478634e0,6.115946940e0
5.031232417e0,3.597803116e0,9.942435622e-1,5.400060177e0,6.564553102e0
5.041265417e0,3.578000069e0,1.034934878e0,6.222968102e0,7.252482795e0
5.051297417e0,3.606052637e0,1.282814145e0,7.865966320e0,8.747722784e0
5.061330417e0,3.591538668e0,1.427473903e0,9.334077835e0,1.010256605e1
5.071363417e0,3.519948244e0,1.784237385e0,1.028744888e1,1.101840021e1
5.081395417e0,3.364580870e0,2.114619017e0,1.076657486e1,1.147654792e1
5.091428417e0,3.130811453e0,2.461369038e0,1.091801262e1,1.162167447e1
5.101460417e0,2.849145174e0,2.742130041e0,1.084015465e1,1.153888462e1
5.111493417e0,2.545663834e0,3.002417803e0,1.081415367e1,1.150829425e1
5.121525417e0,2.233297348e0,3.183288097e0,1.080736923e1,1.148565061e1
5.131558417e0,2.939379454e0,1.289451957e0,1.029253006e1,1.078141053e1
5.141590417e0,4.894273758e0,-1.381677270e0,6.504625797e0,8.256700579e0
5.151623417e0,6.306221962e0,-2.801148891e0,2.616099358e0,7.379623730e0
5.161655417e0,4.986879349e0,-3.701455355e0,2.044384480e0,6.538290700e0
5.171688417e0,2.633485317e0,-5.429881573e0,2.373685837e0,6.484847204e0
5.181721417e0,2.386691332e0,-5.516499043e0,1.553793788e0,6.208247123e0
5.191753417e0,3.515273571e0,-6.273507595e0,6.360768080e-1,7.219324036e0
5.201786417e0,4.580092907e0,-7.203249454e0,-5.488508940e-1,8.553671203e0
5.211818417e0,5.692879200e0,-6.392807961e0,-1.909711361e0,8.770625102e0
5.221851417e0,6.131648064e0,-4.590618134e0,-2.623690128e0,8.096581545e0
5.231883417e0,6.130161285e0,-3.503861189e0,-2.489096165e0,7.486756329e0
5.241916417e0,6.174837112e0,-2.004894257e0,-1.852089047e0,6.751181244e0
5.251948417e0,6.222959995e0,-4.001588821e-1,-1.383129597e0,6.387362970e0
5.261981417e0,6.103307724e0,6.669572592e-1,-1.493752241e0,6.318741403e0
5.272013417e0,5.920310020e0,1.486914396e0,-1.790839314e0,6.361453498e0
5.282046417e0,5.700264931e0,2.381937981e0,-1.954556584e0,6.479733040e0
5.292078417e0,5.572978497e0,3.270645142e0,-2.363559484e0,6.880524864e0
5.302111417e0,5.481785774e0,4.088870049e0,-2.603542805e0,7.317599926e0
5.312144417e0,5.407045841e0,4.761378288e0,-2.861432552e0,7.752074831e0
5.322176417e0,5.275027752e0,5.428894520e0,-2.963533401e0,8.129043222e0
5.332209417e0,4.970085621e0,6.227873802e0,-3.061987877e0,8.536037309e0
5.342241417e0,4.218157291e0,7.192426205e0,-3.069676876e0,8.885199028e0
5.352274417e0,2.600625515e0,7.806683064e0,-3.098872900e0,8.792642764e0
5.362306417e0,-3.994750679e-1,6.770405769e0,-3.294386625e0,7.539957417e0
5.372339417e0,-3.515223503e0,5.430408478e0,-3.804438353e0,7.504657467e0
5.382371417e0,-5.242947102e0,4.066524982e0,-3.713103533e0,7.603437222e0
5.392404417e0,-4.266085625e0,4.926342368e-1,-2.172539234e0,4.812702128e0
5.402436417e0,-1.497636795e0,-7.456280589e-1,4.302712381e-1,1.727428873e0
5.412469417e0,8.423115015e-1,1.497680545e0,1.508230925e0,2.286328105e0
5.422502417e0,1.520740390e0,1.649150133e0,3.581738770e-1,2.271703330e0
5.432534417e0,8.423483372e-1,8.363318443e-2,-3.645761311e-1,9.216620780e-1
5.442567417e0,-3.478052095e-2,-1.998461932e-1,9.707964957e-2,2.248836231e-1
5.452599417e0,-3.954302073e-1,5.774759874e-2,5.052188039e-1,6.441629249e-1
5.462632417e0,-1.619841754e-1,2.451454476e-2,7.587708831e-1,7.762558142e-1
5.472664417e0,2.201973796e-1,-3.877815306e-1,6.940290928e-1,8.249471396e-1
5.482697417e0,4.689576328e-1,-8.327661753e-1,4.503235221e-1,1.056509365e0
5.492729417e0,4.840397239e-1,-1.065003395e0,2.185789198e-1,1.190085472e0
5.502762417e0,2.822533250e-1,-1.032344341e0,8.901853859e-2,1.073930202e0
5.512794417e0,3.546645120e-2,-7.731596828e-1,6.957852840e-2,7.770939041e-1
5.522827417e0,-6.040814519e-2,-4.764360785e-1,4.505241290e-2,4.823589958e-1
5.532860417e0,3.605394438e-2,-3.972419202e-1,2.808195166e-2,3.998620088e-1
5.542892417e0,1.993693709e-1,-4.438957274e-1,3.878013790e-2,4.881551618e-1
5.552925417e0,2.710924745e-1,-3.049941659e-1,9.269669652e-2,4.184557904e-1
5.562957417e0,1.570495069e-1,-6.429900229e-2,1.334851384e-1,2.159101468e-1
5.572990417e0,-5.702971295e-2,4.637266323e-2,1.098783910e-1,1.321970986e-1
5.583022417e0,-2.008222938e-1,1.167304516e-1,8.843917400e-3,2.324517302e-1
5.593055417e0,-2.292419374e-1,2.656313479e-1,-8.558913320e-2,3.611611532e-1
5.603087417e0,-1.732380539e-1,3.701433539e-1,-1.214267537e-1,4.263355278e-1
5.613120417e0,-1.196274683e-1,3.626594841e-1,-1.199240014e-1,4.002679087e-1
5.623152417e0,-1.150004864e-1,3.190387785e-1,-1.213163063e-1,3.601784284e-1
5.633185417e0,-1.426810622e-1,2.603827417e-1,-1.082560867e-1,3.160323369e-1
5.643217417e0,-1.551441103e-1,1.505683511e-1,-5.163461342e-2,2.222760820e-1
5.653250417e0,-9.295461327e-2,2.263188735e-2,-2.741758479e-3,9.570935008e-2
5.663283417e0,1.623632200e-2,-7.947530597e-2,1.996728219e-2,8.353822341e-2
5.673315417e0,1.289454848e-1,-1.825568229e-1,3.469905630e-2,2.261812462e-1
5.683348417e0,1.818201542e-1,-2.614609599e-1,5.242745206e-2,3.227522885e-1
5.693380417e0,1.585829109e-1,-2.741576135e-1,6.770509481e-2,3.238748470e-1
5.703413417e0,1.132135689e-1,-2.381168157e-1,6.762839109e-2,2.721957556e-1
5.713445417e0,8.157128841e-2,-1.761294901e-1,5.672970042e-2,2.022219852e-1
5.723478417e0,5.902896076e-2,-8.402299881e-2,5.150937289e-2,1.148803640e-1
5.733510417e0,3.913740069e-2,2.163410187e-2,5.333720520e-2,6.960336166e-2
5.743543417e0,8.105183020e-3,8.689299971e-2,3.597871959e-2,9.439573959e-2
5.753575417e0,-3.847634047e-2,1.166785732e-1,3.041119780e-4,1.228593126e-1
5.763608417e0,-5.861010402e-2,1.172988266e-1,-3.612846509e-2,1.360125913e-1
5.773640417e0,-6.064877287e-2,9.273221344e-2,-6.522952020e-2,1.285784872e-1
5.783673417e0,-5.435412750e-2,5.562159792e-2,-6.685964018e-2,1.025589821e-1
5.793706417e0,-3.910988197e-2,1.669045910e-2,-5.392062664e-2,6.867014104e-2
5.803738417e0,-2.386754565e-2,-5.837751087e-3,-3.540420160e-2,4.309520349e-2
5.813771417e0,-1.687965356e-2,-1.783279143e-2,-1.107730810e-2,2.693766711e-2
5.823803417e0,-1.731593162e-3,-1.859765127e-2,1.984864846e-2,2.725508931e-2
5.833836417e0,9.080770425e-3,-1.214245893e-2,3.895768151e-2,4.180431376e-2
5.843867958e0,2.265969664e-2,-1.069023646e-2,4.238809645e-2,4.923914833e-2
5.853900958e0,1.718653925e-2,-7.867699489e-3,2.508960664e-2,3.141283477e-2
5.863932958e0,1.044634450e-2,-8.417642675e-3,4.270877689e-3,1.407917675e-2
5.873965958e0,5.260612816e-3,-4.378796555e-3,-1.235601865e-2,1.412512312e-2
5.883997958e0,8.429242298e-3,-3.262665588e-3,-1.686341874e-2,1.913300824e-2
5.894030958e0,1.082095038e-2,-3.368365346e-3,-1.522278506e-2,1.897819900e-2
5.904062958e0,7.491200231e-3,-1.049578376e-2,-7.468459196e-3,1.490159188e-2
5.914095958e0,2.377060940e-3,-1.986189745e-2,9.461175650e-4,2.002599630e-2
5.924128958e0,3.591994988e-3,-2.416609786e-2,9.658915922e-3,2.627160769e-2
5.934160958e0,9.334764443e-3,-2.316745743e-2,1.802342385e-2,3.080118047e-2
5.944193958e0,1.062613074e-2,-1.868855208e-2,1.647639275e-2,2.708594010e-2
5.954225958e0,6.738182157e-3,-7.144015282e-3,7.797684520e-3,1.253969445e-2
5.964258958e0,-5.871084868e-4,5.878310185e-3,3.879641881e-3,7.067591395e-3
5.974290958e0,-1.619221456e-2,2.434419468e-2,-4.677060526e-3,2.960916281e-2
5.984323958e0,-2.887285687e-2,3.450788185e-2,-1.213257946e-2,4.660080748e-2
5.994355958e0,-2.824982442e-2,3.972420096e-2,-1.873118058e-2,5.221993726e-2
6.004388958e0,-2.053437941e-2,3.562239930e-2,-1.841666177e-2,4.505318524e-2
6.014420958e0,-9.256715886e-3,2.323992923e-2,-1.753646880e-2,3.055010373e-2
6.024453958e0,4.808666417e-4,2.677929820e-3,-9.325411171e-3,9.714207860e-3
6.034486958e0,8.592784405e-3,-1.518926211e-2,2.713194583e-3,1.766100371e-2
6.044518958e0,1.502351929e-2,-2.763740905e-2,1.478903182e-2,3.475986152e-2
6.054551958e0,2.163689956e-2,-3.403905779e-2,1.942989044e-2,4.476978356e-2
6.064583958e0,2.299351245e-2,-3.608117253e-2,2.388562448e-2,4.900077227e-2
6.074616958e0,1.883861609e-2,-3.211366758e-2,2.207268961e-2,4.328261461e-2
6.084648958e0,1.409206353e-2,-2.279366925e-2,1.300542615e-2,2.978722414e-2
6.094681958e0,4.263525829e-3,-9.998151101e-3,1.233475516e-3,1.093901914e-2
6.104713958e0,-2.780002542e-3,-1.080556307e-3,-1.041066460e-2,1.082949461e-2
6.114746958e0,-3.339007031e-3,1.193659659e-2,-1.760929823e-2,2.153412850e-2
6.124778958e0,-1.042061858e-2,1.797291636e-2,-2.063757926e-2,2.928352253e-2
6.134811958e0,-1.598795131e-2,2.203390375e-2,-1.723945886e-2,3.222276281e-2
6.144843958e0,-2.118457668e-2,2.372421138e-2,-1.062256843e-2,3.353302036e-2
6.154876958e0,-1.792392135e-2,1.916915178e-2,-9.874331299e-4,2.626210884e-2
6.164909958e0,-6.463540718e-3,1.183347497e-2,4.354601726e-3,1.416936995e-2
6.174941958e0,2.308110241e-3,3.707279218e-3,6.056539714e-3,7.466790837e-3
6.184974958e0,1.066271309e-2,-6.472653709e-3,6.730852183e-3,1.417367516e-2
6.195006958e0,6.436321884e-3,-1.702052727e-2,6.972798146e-3,1.948703420e-2
6.205039958e0,4.211783409e-3,-1.913853921e-2,9.711327031e-3,2.187081789e-2
6.215071958e0,3.244476160e-3,-1.830810681e-2,3.910997417e-3,1.900024477e-2
6.225104958e0,1.080945134e-2,-1.512642764e-2,-6.059901789e-4,1.860162024e-2
6.235136958e0,1.243276522e-2,-1.157219149e-2,-1.038576709e-3,1.701669499e-2
6.245169958e0,1.021808013e-2,-8.223799057e-3,-8.809450082e-5,1.311669902e-2
6.255201958e0,1.268373453e-4,-4.298901651e-3,-1.373675652e-3,4.514823132e-3
6.265234958e0,-6.657032762e-3,-3.699399531e-4,-3.657335881e-3,7.604541177e-3
6.275267958e0,-8.449245244e-3,5.781844258e-3,-2.545801690e-3,1.054990874e-2
6.285299958e0,-3.204415552e-3,7.152839564e-3,-1.112488564e-3,7.916376928e-3
6.295332958e0,5.412490573e-4,1.066843420e-2,5.440497771e-4,1.069600061e-2
6.305364958e0,-7.282798178e-4,9.608762339e-3,3.883121070e-3,1.038928941e-2
6.315397958e0,-7.234696299e-3,7.617575116e-3,2.360093407e-3,1.076746591e-2
6.325429958e0,-9.494388476e-3,1.224657055e-3,3.262106096e-3,1.011358164e-2
6.335462958e0,-2.671955153e-3,-3.352652770e-3,1.643280266e-3,4.591295565e-3
6.345494958e0,4.847213626e-3,-6.591322832e-3,8.648382500e-4,8.227330175e-3
6.355527958e0,6.026054733e-3,-1.131221093e-2,-3.980093170e-4,1.282333277e-2
6.365559958e0,3.955713473e-3,-8.755043149e-3,5.845655687e-5,9.607386054e-3
6.375592958e0,-2.617477730e-4,-2.243507188e-3,-2.190109808e-3,3.146175038e-3
6.385624958e0,1.032015891e-3,-2.685591811e-3,-2.870547585e-3,4.064173177e-3
6.395657958e0,-8.147612098e-4,-3.709129523e-3,-3.309330205e-3,5.037176198e-3
6.405690958e0,1.510444679e-3,1.596153481e-3,-8.874514606e-4,2.369961848e-3
6.415722958e0,1.300044823e-5,1.545949839e-3,4.301676527e-4,1.604734908e-3
6.425755958e0,2.114767209e-3,3.059820738e-4,-1.148820622e-3,2.426036726e-3
6.435787958e0,-2.103341511e-3,-1.633817563e-3,2.007773845e-3,3.335350229e-3
6.445820958e0,-1.895614900e-3,-2.923586406e-3,3.531900933e-3,4.961354404e-3
6.455852958e0,-9.546510410e-5,-2.542768372e-3,5.154745653e-3,5.748581332e-3
6.465885958e0,-2.665681764e-3,7.102829404e-4,1.561608980e-3,3.170013207e-3
6.475917958e0,-2.103560138e-3,2.859408967e-3,1.463656314e-3,3.839723259e-3
6.485950958e0,-1.597825787e-3,8.672291413e-3,-4.389060196e-4,8.829174599e-3
6.495982958e0,-4.482158984e-4,4.432832357e-3,-3.587700659e-3,5.720358049e-3
6.506015958e0,-3.511117306e-3,2.256230917e-3,-5.743529648e-3,7.099764468e-3
6.516048958e0,-3.889160231e-3,2.028894611e-3,-3.804991255e-3,5.806887212e-3
6.526080958e0,-2.899796003e-3,-2.371892333e-4,-2.808436519e-3,4.043809005e-3
6.536113958e0,3.412208054e-3,-4.087298177e-3,-8.557364345e-5,5.325081506e-3
6.546145958e0,6.109457463e-3,-7.288417779e-3,2.904091030e-3,9.943854832e-3
6.556178958e0,4.675734323e-3,-5.913871806e-3,3.990145866e-3,8.529808628e-3
6.566210958e0,1.611234853e-3,-7.876088843e-3,3.537142184e-3,8.782950987e-3
6.576243958e0,-1.402711496e-5,-6.844711956e-3,5.900004879e-3,9.036610874e-3
6.586275958e0,2.649932867e-3,-5.533371586e-3,2.544954652e-3,6.642073433e-3
6.596308958e0,3.033061512e-5,-3.433449194e-3,3.772310447e-4,3.454243271e-3
6.606340958e0,1.193865668e-3,1.740273554e-3,-7.697925903e-4,2.246430036e-3
6.616373958e0,-7.835270953e-4,4.912822973e-3,-4.295894410e-3,6.573009437e-3
6.626405958e0,-4.494375549e-3,3.652082291e-3,-3.107325640e-3,6.572106912e-3
6.636438958e0,-7.076552603e-3,4.939558450e-3,-4.210956395e-3,9.602551129e-3
6.646470958e0,-3.255449235e-3,5.246621091e-3,-2.129163360e-3,6.531333647e-3
6.656503958e0,1.713495236e-3,4.403374158e-3,3.223344684e-4,4.735997192e-3
6.666536958e0,1.532666618e-3,4.594989587e-4,-1.219635829e-3,2.011894085e-3
6.676568958e0,3.420924768e-3,-3.081466537e-3,-1.904993085e-3,4.982686117e-3
6.686601958e0,2.733563073e-3,-5.722257309e-3,4.993088078e-4,6.361281716e-3
6.696633958e0,-2.798828064e-5,-9.002193809e-3,2.343099564e-3,9.302171374e-3
6.706666958e0,4.860018380e-4,-7.298569661e-3,9.814597666e-3,1.224057369e-2
6.716698958e0,3.899012227e-3,-3.776957747e-3,6.923270412e-3,8.797691706e-3
6.726731958e0,6.142991595e-3,1.724762842e-5,4.440405406e-3,7.579831356e-3
6.736763958e0,1.247838605e-2,-2.050963230e-3,-5.905975588e-3,1.395697375e-2
6.746796958e0,-1.484857593e-2,-2.163348487e-3,-7.990978193e-4,1.502660444e-2
6.756828958e0,-4.811700806e-2,8.395040408e-3,2.701446973e-2,5.581670666e-2
6.766861958e0,-2.262868918e-2,1.958244853e-2,4.030098021e-2,5.019660218e-2
6.776894958e0,2.590166032e-2,2.397806756e-2,3.711809218e-2,5.122105523e-2
6.786926958e0,2.688729763e-2,2.857654914e-2,6.759610027e-2,7.815867646e-2
6.796959958e0,4.780639429e-3,2.066019736e-2,9.533401579e-2,9.766408160e-2
6.806991958e0,-6.391854025e-3,2.819948830e-3,7.125424594e-2,7.159591799e-2
6.817024958e0,-3.302952740e-3,-4.380512517e-3,1.515622996e-2,1.611861325e-2
6.827056958e0,1.070314366e-2,-1.006369852e-2,-2.409983054e-2,2.822476119e-2
6.837090667e0,6.630566902e-3,-1.603241824e-2,-3.668241575e-2,4.057834986e-2
6.847122667e0,-2.108628117e-2,-2.043169364e-2,-5.107813329e-2,5.891571147e-2
6.857155667e0,-3.399886191e-2,-1.480433159e-2,-5.696852878e-2,6.797429011e-2
6.867187667e0,-1.869527064e-2,9.141214192e-3,-3.550238535e-2,4.115208751e-2
6.877220667e0,1.364479773e-3,2.940717712e-2,-3.494402394e-3,2.964548396e-2
6.887252667e0,1.171219256e-2,2.771020867e-2,9.883986786e-3,3.166582249e-2
6.897285667e0,1.701774076e-2,1.392249204e-2,2.900788188e-2,3.639912769e-2
6.907318667e0,4.517396446e-3,-2.733184258e-3,5.074966326e-2,5.102357777e-2
6.917350667e0,2.279103734e-3,-2.187157795e-2,3.718957305e-2,4.320445092e-2
6.927383667e0,3.232755139e-2,-4.334384575e-2,1.430023648e-2,5.593081715e-2
6.937415667e0,5.624282733e-2,-4.927749187e-2,1.452040952e-2,7.617328352e-2
6.947448667e0,2.785779536e-2,-3.980169818e-2,1.201490685e-2,5.004587822e-2
6.957480667e0,-3.670378402e-2,-2.687730081e-2,-1.984676160e-2,4.963316438e-2
6.967513667e0,-5.692702904e-2,-6.600789726e-3,-4.836042970e-2,7.498658695e-2
6.977545667e0,-2.476492897e-2,2.564186789e-2,-4.239708930e-2,5.539242075e-2
6.987578667e0,6.471020170e-3,6.205101311e-2,-1.205915958e-2,6.354231393e-2
6.997610667e0,-2.660765604e-4,6.651084870e-2,-2.779311733e-3,6.656942515e-2
7.007643667e0,-2.702791616e-2,4.759814218e-2,-1.022950467e-2,5.568423616e-2
7.017676667e0,-3.254925460e-2,3.259082139e-2,1.420443994e-3,4.608289568e-2
7.027708667e0,-1.609890908e-2,8.994948119e-3,2.810638212e-2,3.361625620e-2
7.037741667e0,2.252247185e-2,-2.099671401e-2,2.597029693e-2,4.028126190e-2
7.047773667e0,4.552445933e-2,-4.374356940e-2,1.077243593e-2,6.404702677e-2
7.057806667e0,3.290294111e-2,-5.458689854e-2,1.133436244e-2,6.473639469e-2
7.067838667e0,1.815462112e-2,-6.205546483e-2,1.410884410e-2,6.617802102e-2
7.077871667e0,6.188820116e-3,-4.890616983e-2,4.780021496e-3,4.952740199e-2
7.087903667e0,9.020824917e-3,-2.879877016e-2,-9.388527833e-3,3.160520368e-2
7.097936667e0,3.160586581e-3,-3.421548754e-4,-1.307038311e-2,1.345144201e-2
7.107968667e0,-1.215818245e-2,2.792117372e-2,-1.201284118e-2,3.273716078e-2
7.118001667e0,-2.433098294e-2,4.859811813e-2,-1.349274255e-2,5.599846353e-2
7.128033667e0,-2.590970322e-2,5.139683560e-2,-8.860174567e-3,5.823615822e-2
7.138066667e0,-1.885709539e-2,4.715604335e-2,5.207150243e-4,5.078930611e-2
7.148099667e0,-1.163486671e-2,2.996454202e-2,1.517289504e-2,3.554519160e-2
7.158131667e0,-2.459239447e-3,7.305008825e-3,1.767076924e-2,1.927866952e-2
7.168164667e0,3.470021999e-3,-1.825707592e-2,7.967275567e-3,2.021977630e-2
7.178196667e0,8.607601747e-3,-3.607418388e-2,3.185707377e-3,3.722346413e-2
7.188229667e0,1.617071219e-2,-3.702067211e-2,3.563343547e-3,4.055514164e-2
7.198261667e0,2.022230066e-2,-3.669098765e-2,-3.385461634e-3,4.203131415e-2
7.208294667e0,1.620918326e-2,-3.023415431e-2,-6.265670061e-3,3.487263010e-2
7.218326667e0,-5.792626180e-4,-9.651739150e-3,-2.339269966e-3,9.948054975e-3
7.228359667e0,-7.169255055e-3,5.618560594e-3,1.134290826e-3,9.178946392e-3
7.238391667e0,-4.896180704e-3,2.023250610e-2,-3.241677769e-5,2.081653043e-2
7.248424667e0,-5.154773593e-3,2.364801057e-2,-1.791434828e-3,2.426951448e-2
7.258456667e0,-8.211839013e-3,2.531984076e-2,7.487065159e-4,2.662872880e-2
7.268489667e0,-5.147872958e-3,1.316490769e-2,-1.047329279e-3,1.417435322e-2
7.278522667e0,-6.431657821e-3,3.572382266e-3,-8.312412538e-4,7.403992126e-3
7.288554667e0,4.768798593e-3,-9.414522909e-3,-8.012454957e-3,1.325043833e-2
7.298587667e0,6.470730156e-2,-5.058987811e-2,-2.447004430e-2,8.570387220e-2
7.308619667e0,-1.894098707e-2,-2.246024087e-2,4.341313243e-2,5.242063981e-2
7.318652667e0,3.272053227e-2,-7.738019526e-2,6.168347001e-1,6.225298186e-1
7.328684667e0,2.979577780e-1,-7.284829021e-2,7.276104689e-1,7.896218749e-1
7.338717667e0,4.495364428e-1,-2.281065583e-1,5.764834881e-1,7.657994694e-1
7.348749667e0,4.066153467e-1,-3.446973562e-1,5.614483356e-1,7.741941237e-1
7.358782667e0,2.405109406e-1,-1.754780263e-1,5.527958274e-1,6.278704301e-1
7.368814667e0,2.082997933e-2,1.716970839e-2,4.561007321e-1,4.568988561e-1
7.378847667e0,-1.587204039e-1,8.574651927e-2,-1.268183589e-1,2.205165035e-1
7.388879667e0,-1.995309591e-1,2.636376917e-1,-8.059734106e-2,3.403136311e-1
7.398912667e0,-3.472522646e-2,1.204627633e0,-3.330226839e-1,1.250295039e0
7.408945667e0,9.161487222e-2,1.605135918e0,-5.062261224e-1,1.685562068e0
7.418977667e0,3.682431951e-2,1.792997241e0,-5.092762113e-1,1.864284688e0
7.429010667e0,-1.750471890e-1,1.089491010e0,-3.187749386e-1,1.148585931e0
7.439042667e0,-4.507166147e-1,5.319021344e-1,-3.206633627e-1,7.673919074e-1
7.449075667e0,-6.315841079e-1,2.741196156e-1,-4.994157851e-1,8.505622701e-1
7.459107667e0,-7.766994834e-1,3.894545734e-1,-5.083601475e-1,1.006661309e0
7.469140667e0,-1.050850272e0,7.128571272e-1,-5.974076986e-1,1.403334435e0
7.479172667e0,-1.431348920e0,1.021307111e0,-8.269690275e-1,1.943117525e0
7.489205667e0,-1.846627235e0,1.237648964e0,-1.127369046e0,2.492542491e0
7.499237667e0,-2.282774925e0,1.340615869e0,-1.309607148e0,2.953537396e0
7.509270667e0,-2.728938818e0,1.409995198e0,-1.373136640e0,3.364624461e0
7.519302667e0,-3.184912205e0,1.436757088e0,-1.301515937e0,3.728522551e0
7.529335667e0,-3.639631510e0,1.399107695e0,-1.127708435e0,4.059081938e0
7.539368667e0,-4.057028770e0,1.385870457e0,-8.923359513e-1,4.379084701e0
7.549400667e0,-4.410782337e0,1.473101258e0,-6.990104318e-1,4.702514617e0
7.559433667e0,-4.714807034e0,1.621859074e0,-7.995623350e-1,5.049666538e0
7.569465667e0,-4.946745872e0,1.605793357e0,-1.140499115e0,5.324434737e0
7.579498667e0,-5.085146427e0,1.446215630e0,-1.232752800e0,5.428621676e0
7.589530667e0,-5.121363640e0,1.232396245e0,-1.199085951e0,5.402311834e0
7.599563667e0,-5.054200649e0,9.731550813e-1,-1.227936506e0,5.291484015e0
7.609595667e0,-4.901286125e0,7.764444351e-1,-1.262435913e0,5.120470298e0
7.619628667e0,-4.697281361e0,7.437838912e-1,-1.166308165e0,4.896727621e0
7.629660667e0,-4.481501579e0,9.758911729e-1,-1.037623167e0,4.702433606e0
7.639693667e0,-4.295948029e0,1.335065365e0,-1.031992435e0,4.615471523e0
7.649726667e0,-4.136126518e0,1.650881290e0,-9.552509785e-1,4.554717998e0
7.659758667e0,-4.003184795e0,1.868253350e0,-7.806715965e-1,4.486123853e0
7.669791667e0,-3.883026600e0,2.022410154e0,-6.215474606e-1,4.422031168e0
7.679823667e0,-3.760302544e0,2.216587067e0,-5.635750294e-1,4.401221451e0
7.689856667e0,-3.621756792e0,2.451857328e0,-5.652831793e-1,4.410019466e0
7.699888667e0,-3.461173534e0,2.722244740e0,-4.215055704e-1,4.423573850e0
7.709921667e0,-3.276299000e0,2.912859917e0,-2.628932893e-1,4.391810664e0
7.719953667e0,-3.071435928e0,3.025534868e0,-3.295615911e-1,4.323909197e0
7.729986667e0,-2.848055840e0,3.065245152e0,-3.775557578e-1,4.201154395e0
7.740018667e0,-2.630032778e0,3.031696081e0,-3.281774819e-1,4.026903773e0
7.750051667e0,-2.439406633e0,2.922480822e0,-3.401262760e-1,3.821947770e0
7.760083667e0,-2.280635357e0,2.769152164e0,-4.257178605e-1,3.612580385e0
7.770116667e0,-2.153549671e0,2.654628754e0,-5.296669006e-1,3.459100610e0
7.780149667e0,-2.073405504e0,2.534189463e0,-5.963289142e-1,3.328172891e0
7.790181667e0,-2.043202400e0,2.357621908e0,-5.794189572e-1,3.173134639e0
7.800214667e0,-2.068138599e0,2.210587025e0,-4.842180610e-1,3.065674378e0
7.810246667e0,-2.115054131e0,2.109493971e0,-3.528765440e-1,3.007979495e0
7.820279667e0,-2.179883957e0,2.056340933e0,-2.280545384e-1,3.005401965e0
7.830311667e0,-2.244340897e0,1.954192996e0,-1.154299900e-1,2.978130355e0
7.840344667e0,-2.311179638e0,1.824941278e0,-8.723603189e-2,2.946111354e0
7.850376667e0,-2.366941452e0,1.734632730e0,-1.185047403e-1,2.936904139e0
7.860409667e0,-2.405843973e0,1.674617767e0,-1.541353315e-1,2.935334323e0
7.870441667e0,-2.424856901e0,1.662671328e0,-1.627629101e-1,2.944638976e0
7.880474667e0,-2.415849447e0,1.672116041e0,-1.327426434e-1,2.941074840e0
7.890506667e0,-2.376997232e0,1.704623103e0,-9.693562984e-2,2.926645227e0
7.900539667e0,-2.295264959e0,1.737298608e0,1.743122935e-3,2.878619587e0
7.910572667e0,-2.167858601e0,1.726556182e0,8.224488795e-2,2.772610933e0
7.920604667e0,-2.013209343e0,1.656615376e0,3.246307373e-3,2.607181793e0
7.930637667e0,-1.821224928e0,1.538016915e0,-1.344194114e-1,2.387556250e0
7.940669667e0,-1.622972846e0,1.385518789e0,-2.680411339e-1,2.150709005e0
7.950702667e0,-1.409339070e0,1.275339842e0,-4.020982683e-1,1.942784431e0
7.960734667e0,-1.196771264e0,1.170018196e0,-4.849048853e-1,1.742508762e0
7.970767667e0,-9.816973805e-1,1.146082282e0,-4.614682794e-1,1.578032736e0
7.980799667e0,-7.705979347e-1,1.112552047e0,-3.839311302e-1,1.406768050e0
7.990832667e0,-5.664756894e-1,1.118547797e0,-3.483417034e-1,1.301301588e0
8.000864667e0,-3.732967675e-1,1.158000112e0,-3.906202316e-1,1.277849326e0
8.010897667e0,-2.071149647e-1,1.155611515e0,-5.071034431e-1,1.278862183e0
8.020929667e0,-5.904458091e-2,1.151818275e0,-6.091288924e-1,1.304304263e0
8.030962667e0,5.764394999e-2,1.143124580e0,-6.988310814e-1,1.341052390e0
8.040995667e0,1.551171392e-1,1.143870234e0,-7.280302048e-1,1.364744818e0
8.051027667e0,2.360575348e-1,1.191261411e0,-7.001580596e-1,1.401801775e0
8.061060667e0,2.996534109e-1,1.217605114e0,-6.043298841e-1,1.391965872e0
8.071092667e0,3.419044614e-1,1.205696583e0,-5.456705689e-1,1.366879395e0
8.081125667e0,3.623565733e-1,1.168674231e0,-5.399737954e-1,1.337412967e0
8.091157667e0,3.659233451e-1,1.123731494e0,-5.923911929e-1,1.321968112e0
8.101190667e0,3.517752290e-1,1.054828286e0,-6.698839664e-1,1.298134451e0
8.111222667e0,3.126184940e-1,1.015630007e0,-7.417448163e-1,1.295924383e0
8.121255667e0,2.573259175e-1,1.035309196e0,-7.014220953e-1,1.276743793e0
8.131287667e0,1.920518279e-1,1.018954754e0,-6.253190637e-1,1.210857806e0
8.141320667e0,1.248491034e-1,1.016779065e0,-5.342320800e-1,1.155348814e0
8.151352667e0,7.001542300e-2,1.049709797e0,-4.292092919e-1,1.136227721e0
8.161385667e0,5.985785276e-3,1.116576433e0,-4.095539153e-1,1.189333078e0
8.171417667e0,-5.123622715e-2,1.198678970e0,-4.067069888e-1,1.266833454e0
8.181450667e0,-1.234052628e-1,1.341249108e0,-4.404234290e-1,1.417092385e0
8.191483667e0,-2.026968896e-1,1.370454431e0,-4.445350766e-1,1.454937390e0
8.201515667e0,-2.949630320e-1,1.447110057e0,-4.796964526e-1,1.552816600e0
8.211548667e0,-4.096299708e-1,1.472660422e0,-5.169596672e-1,1.613620999e0
8.221580667e0,-5.354408622e-1,1.509839535e0,-4.845719337e-1,1.673655370e0
8.231613667e0,-6.649860740e-1,1.578209281e0,-3.514490426e-1,1.748275563e0
8.241645667e0,-7.852929235e-1,1.662974596e0,-1.435427070e-1,1.844660942e0
8.251678667e0,-8.883804679e-1,1.729261994e0,4.710899293e-2,1.944681506e0
8.261710667e0,-9.612178802e-1,1.715440273e0,1.500098109e-1,1.972099918e0
8.271743667e0,-1.000091791e0,1.635184765e0,2.039604038e-1,1.927592450e0
8.281775667e0,-1.000994205e0,1.523450136e0,2.237062454e-1,1.836554982e0
8.291808667e0,-9.769751430e-1,1.407889247e0,1.573946029e-1,1.720873506e0
8.301840667e0,-9.367009997e-1,1.347837210e0,2.078166045e-2,1.641494985e0
8.311873667e0,-8.971344233e-1,1.301602006e0,-1.212662905e-1,1.585472633e0
8.321906667e0,-8.662042618e-1,1.280272841e0,-2.261551321e-1,1.562227421e0
8.331938667e0,-8.575974703e-1,1.261080861e0,-2.397441715e-1,1.543786134e0
8.341971667e0,-8.683402538e-1,1.194534302e0,-2.011360973e-1,1.490430382e0
8.352003667e0,-8.904745579e-1,1.109053254e0,-9.117922932e-2,1.425221986e0
8.362036667e0,-9.183186293e-1,9.760024548e-1,1.061786935e-1,1.344307930e0
8.372068667e0,-9.345505834e-1,7.661421895e-1,3.362800479e-1,1.254369530e0
8.382101667e0,-9.319663048e-1,4.740306735e-1,5.313262939e-1,1.172848628e0
8.392133667e0,-9.022342563e-1,1.689051241e-1,5.598732829e-1,1.075180769e0
8.402166667e0,-8.548157811e-1,-8.398696780e-2,4.728657901e-1,9.804926751e-1
8.412198667e0,-8.015387058e-1,-3.326457739e-1,3.295035660e-1,9.282726474e-1
8.422231667e0,-7.562729716e-1,-5.094905496e-1,1.703546941e-1,9.276584229e-1
8.432263667e0,4.548879266e-1,-5.926168561e-1,-2.733114362e-1,7.954978976e-1
8.442296667e0,6.116449833e-2,-1.118907854e-1,-2.663439512e-2,1.302690858e-1
8.452329667e0,-9.938116074e-1,2.613046393e-2,3.654191196e-1,1.059186218e0
8.462361667e0,-1.545737147e0,-3.309864551e-2,3.073170483e-1,1.576338357e0
8.472394667e0,-1.417763710e0,-1.364181191e-1,-3.942983150e-1,1.477881931e0
8.482426667e0,-1.015910149e0,-3.635751009e-1,-8.074094653e-1,1.347653638e0
8.492459667e0,-8.512731791e-1,-4.274947047e-1,-1.051530600e0,1.418849657e0
8.502491667e0,-8.932180405e-1,-2.571933568e-1,-1.068787217e0,1.416436729e0
8.512524667e0,-1.007974148e0,-1.309824288e-1,-8.970409036e-1,1.355673509e0
8.522556667e0,-8.964738250e-1,9.336067736e-2,-5.920925140e-1,1.078403950e0
8.532589667e0,-4.872764349e-1,-1.366064847e-1,-5.159261227e-1,7.226890201e-1
8.542621667e0,-5.472836085e-3,-5.111895800e-1,-3.972560763e-1,6.474234540e-1
8.552654667e0,1.829897612e-1,-7.402110100e-1,-3.316738904e-1,8.315077640e-1
8.562686667e0,1.106539741e-1,-6.795730591e-1,-2.753262222e-1,7.415311007e-1
8.572719667e0,7.007139176e-2,-4.461185038e-1,-1.782427877e-1,4.854917206e-1
8.582751667e0,3.297024071e-1,-2.911137938e-1,-1.110626012e-1,4.536362195e-1
8.592784667e0,7.687593699e-1,-1.953260154e-1,-1.993983239e-1,8.178648498e-1
8.602817667e0,1.126203418e0,-1.116700321e-1,-4.253309965e-1,1.209012320e0
8.612849667e0,1.268436790e0,-2.156437188e-2,-6.964613199e-1,1.447223300e0
8.622882667e0,1.238652945e0,7.654740661e-2,-9.467102289e-1,1.560891053e0
8.632914667e0,1.120589137e0,1.656865925e-1,-1.151845813e0,1.615524942e0
8.642947667e0,1.037743092e0,2.593066990e-1,-1.297235966e0,1.681360116e0
8.652979667e0,1.047231674e0,4.329229891e-1,-1.365889311e0,1.774759168e0
8.663012667e0,1.137858391e0,6.762827039e-1,-1.320754886e0,1.869885954e0
8.673044667e0,1.163658619e0,8.180105686e-1,-1.177107453e0,1.846300254e0
8.683077667e0,9.717026949e-1,8.321088552e-1,-1.007569790e0,1.628437336e0
8.693109667e0,6.124827266e-1,7.477499843e-1,-8.483728766e-1,1.286079961e0
8.703142667e0,1.996214986e-1,5.519548059e-1,-6.650620699e-1,8.870233408e-1
8.713174667e0,-1.522273570e-1,3.369633853e-1,-4.773201048e-1,6.037813957e-1
8.723207667e0,-3.906136751e-1,2.008046508e-1,-3.102092743e-1,5.377093498e-1
8.733240667e0,-4.614396393e-1,2.312570959e-1,-2.382056564e-1,5.684613618e-1
8.743272667e0,-3.366650343e-1,3.641490638e-1,-2.537795007e-1,5.570923810e-1
8.753305667e0,-1.014330536e-1,5.561036468e-1,-3.399854898e-1,6.596438915e-1
8.763337667e0,1.024181843e-1,7.391934991e-1,-4.634140432e-1,8.784355918e-1
8.773370667e0,2.097092271e-1,8.252903223e-1,-5.536385179e-1,1.015675974e0
8.783402667e0,3.153323829e-1,8.103408217e-1,-2.705049813e-1,9.106369771e-1
8.793435667e0,5.789834857e-1,6.774179339e-1,-9.676408023e-2,8.963705825e-1
8.803467667e0,8.654983640e-1,5.499839783e-1,-8.172222227e-2,1.028711969e0
8.813500667e0,8.530312777e-1,4.067743421e-1,-7.929661125e-2,9.483752836e-1
8.823532667e0,6.524192095e-1,3.034832180e-1,-2.212051600e-1,7.527845716e-1
8.833565667e0,4.019023180e-1,1.593526602e-1,-3.898988366e-1,5.821854054e-1
8.843597958e0,1.986711472e-1,-1.736725494e-2,-4.752134681e-1,5.153636449e-1
8.853630958e0,9.384275228e-2,-1.910570264e-1,-4.559854269e-1,5.032215805e-1
8.863663958e0,2.680265717e-2,-3.398233652e-1,-3.852054775e-1,5.143749234e-1
8.873695958e0,-4.620497301e-2,-3.775609136e-1,-3.077352047e-1,4.892730313e-1
8.883728958e0,-6.518200785e-2,-3.024744093e-1,-1.916672736e-1,3.639722603e-1
8.893760958e0,1.537887938e-2,-1.667871624e-1,-8.975768834e-2,1.900287086e-1
8.903793958e0,1.771229059e-1,2.830864489e-2,-5.191880092e-2,1.867336741e-1
8.913825958e0,3.318624496e-1,2.509486377e-1,-9.437517822e-2,4.266316661e-1
8.923858958e0,4.056702256e-1,4.204014540e-1,-1.846046150e-1,6.126863621e-1
8.933890958e0,3.912220597e-1,5.033522248e-1,-2.505926788e-1,6.849925933e-1
8.943923958e0,3.126858771e-1,5.230398774e-1,-2.796617448e-1,6.704877796e-1
8.953955958e0,2.118724436e-1,5.217109323e-1,-2.747945487e-1,6.265654580e-1
8.963988958e0,1.586882472e-1,4.633264244e-1,-2.835507095e-1,5.659101874e-1
8.974020958e0,1.200186089e-1,3.626086116e-1,-2.623655200e-1,4.633844384e-1
8.984053958e0,3.358194977e-2,2.290105820e-1,-2.020830363e-1,3.072639705e-1
8.994085958e0,-4.709611833e-2,1.198974103e-1,-1.453877985e-1,1.942448077e-1
9.004118958e0,-4.726479575e-2,4.289043322e-2,-9.003812075e-2,1.103649100e-1
9.014151958e0,8.842150681e-3,-1.372570731e-2,-5.770201609e-2,5.996750228e-2
9.024183958e0,1.317644864e-2,-2.502159448e-3,-4.194230586e-2,4.403449355e-2
9.034216958e0,-6.106342748e-2,1.079718843e-1,-5.178188533e-2,1.344173859e-1
9.044248958e0,-2.894547284e-1,2.083162814e-1,-7.916081697e-2,3.653028166e-1
9.054281958e0,-2.036831081e-1,2.105986178e-1,-1.692036241e-1,3.383318678e-1
9.064313958e0,-1.915432513e-2,1.867878735e-1,-2.510358691e-1,3.134894024e-1
9.074346958e0,1.307717860e-1,1.959291697e-1,-2.408926934e-1,3.369254951e-1
9.084378958e0,2.371345460e-1,2.153664082e-1,-2.005626410e-1,3.779429265e-1
9.094411958e0,3.087610602e-1,1.969365329e-1,-1.480991691e-1,3.950325989e-1
9.104443958e0,2.867911160e-1,1.920179874e-1,-2.228807807e-1,4.108477748e-1
9.114476958e0,2.190602720e-1,1.599255651e-1,-2.253402174e-1,3.526213305e-1
9.124508958e0,1.930492520e-1,1.016095728e-1,-1.959775835e-1,2.932571094e-1