"Time (s)","Gyroscope x (rad/s)","Gyroscope y (rad/s)","Gyroscope z (rad/s)","Absolute (rad/s)"
9.605041661e-3,-5.584022403e-1,-5.327046514e-1,1.102014780e-1,7.795714677e-1
1.963804167e-2,-7.456040978e-1,-7.168608904e-1,1.137376279e-1,1.040553341e0
2.967104167e-2,-9.557594061e-1,-8.644136190e-1,1.290221959e-1,1.295119174e0
3.970404166e-2,-1.210022807e0,-1.015960336e0,1.805602163e-1,1.590261799e0
4.973704166e-2,-1.527810812e0,-1.153631926e0,2.706097662e-1,1.933468940e0
5.977004166e-2,-1.796983719e0,-1.289353013e0,3.845704198e-1,2.244877744e0
6.980304167e-2,-1.953447700e0,-1.293054223e0,4.322474003e-1,2.382180714e0
7.983604167e-2,-2.010094166e0,-1.560171366e0,6.434898973e-1,2.624631878e0
8.986904167e-2,-2.056581497e0,-1.580360770e0,8.533897400e-1,2.730447155e0
9.990204166e-2,-2.060576439e0,-1.490347624e0,9.918615818e-1,2.729633803e0
1.099350417e-1,-2.061712027e0,-1.346718907e0,1.033496261e0,2.670659622e0
1.199680417e-1,-2.114579439e0,-1.210504174e0,9.740358591e-1,2.624025994e0
1.300010417e-1,-2.127867699e0,-1.242647886e0,8.660039306e-1,2.611887731e0
1.400340417e-1,-2.095332384e0,-1.533528805e0,7.128559351e-1,2.692636622e0
1.500670417e-1,-2.022421122e0,-1.900198579e0,5.284647942e-1,2.824927764e0
1.601000417e-1,-1.844907522e0,-2.062592983e0,3.472169936e-1,2.789002191e0
1.701330417e-1,-1.596746087e0,-1.920443416e0,2.625626326e-1,2.511302474e0
1.801660417e-1,-1.385443687e0,-1.509468675e0,2.750187814e-1,2.067265155e0
1.901990417e-1,-1.241233587e0,-1.035444379e0,3.364437819e-1,1.651060356e0
2.002320417e-1,-1.126252055e0,-6.060272455e-1,3.913709521e-1,1.337491658e0
2.102650417e-1,-1.015687108e0,-2.746163309e-1,4.066662490e-1,1.128012353e0
2.202980417e-1,-8.065301180e-1,-5.242587999e-2,3.714531362e-1,8.895036461e-1
2.303310417e-1,-5.383549333e-1,-1.559604146e-2,2.653854489e-1,6.004154455e-1
2.403640417e-1,-2.562577128e-1,-1.925111562e-1,1.376604885e-1,3.488251292e-1
2.503970417e-1,-2.551463246e-2,-5.337815285e-1,2.272152109e-3,5.343958077e-1
2.604300417e-1,1.225717738e-1,-8.074088097e-1,-1.542040110e-1,8.310906705e-1
2.704630417e-1,1.322229803e-1,-9.517648816e-1,-2.280758619e-1,9.876020986e-1
2.804960417e-1,8.365491033e-2,-1.062590837e0,-3.170768321e-1,1.112040984e0
2.905290417e-1,-6.368889008e-3,-1.157364368e0,-4.189963043e-1,1.230890225e0
3.005620417e-1,-2.229374200e-1,-9.680641890e-1,-4.041989744e-1,1.072485980e0
3.105950417e-1,-3.792140260e-2,-7.234859467e-1,-2.344251424e-1,7.614624713e-1
3.206280417e-1,2.290807366e-1,-4.038912058e-1,-1.309355050e-1,4.824419100e-1
3.306610417e-1,4.380238354e-1,-1.109622419e-1,-1.766018420e-1,4.851450403e-1
3.406940417e-1,8.636547923e-1,-5.332197547e-1,-2.675296068e-1,1.049664231e0
3.507270417e-1,1.142887712e0,-6.632100344e-1,-1.732089520e-1,1.332681962e0
3.607600417e-1,1.373362422e0,-6.322521567e-1,-3.922451288e-2,1.512417169e0
3.707930417e-1,1.563059807e0,-6.880879998e-1,3.179036453e-2,1.708107632e0
3.808260417e-1,1.838658452e0,-8.406373262e-1,6.136132404e-3,2.021725419e0
3.908590417e-1,2.021483898e0,-9.064467549e-1,-8.697318286e-2,2.217116868e0
4.008920417e-1,1.994757414e0,-1.028082728e0,-3.534690738e-1,2.271772793e0
4.109250417e-1,1.831236720e0,-1.237074494e0,-6.329541802e-1,2.298784945e0
4.209580417e-1,1.561343789e0,-1.236442804e0,-7.739371657e-1,2.136718038e0
4.309910417e-1,1.153634548e0,-1.083955169e0,-8.446767330e-1,1.794243646e0
4.410240417e-1,6.523379087e-1,-9.982264042e-1,-8.596117496e-1,1.470011245e0
4.510570417e-1,1.003554463e-1,-9.272117019e-1,-8.035562634e-1,1.231054598e0
4.610900417e-1,-4.539034963e-1,-7.893062830e-1,-6.965491176e-1,1.146391497e0
4.711230417e-1,-9.160165191e-1,-5.443297625e-1,-5.861994028e-1,1.216145918e0
4.811560417e-1,-1.225904465e0,-1.712057143e-1,-4.868170917e-1,1.330091739e0
4.911890417e-1,-1.350918293e0,2.052907944e-1,-3.694646358e-1,1.415495907e0
5.012220417e-1,-1.273734570e0,6.115429401e-1,-1.520790458e-1,1.421095548e0
5.112550417e-1,-1.125067949e0,1.299382329e0,2.139451057e-1,1.732034883e0
5.212880417e-1,-9.169240594e-1,1.660600781e0,6.444575787e-1,2.003414649e0
5.313220417e-1,-6.124748588e-1,1.736436963e0,1.010560036e0,2.100373863e0
5.413550417e-1,-3.575751781e-1,1.722939849e0,1.341354728e0,2.212603497e0
5.513880417e-1,-1.024335772e-1,2.030413389e0,1.595107794e0,2.584074311e0
5.614210417e-1,1.945767850e-1,2.108812332e0,1.589674711e0,2.648021009e0
5.714540417e-1,5.567433834e-1,1.969358206e0,1.498830199e0,2.536696061e0
5.814870417e-1,1.011637092e0,1.555223703e0,1.406590104e0,2.328223807e0
5.915200417e-1,1.450970888e0,8.800334930e-1,1.333602309e0,2.158302710e0
6.015530417e-1,1.766536832e0,-1.630984396e-1,1.228984237e0,2.158160266e0
6.115860417e-1,1.859990835e0,-1.060578942e0,9.832331538e-1,2.356085957e0
6.216190417e-1,1.778894901e0,-1.732307434e0,6.012918949e-1,2.554781411e0
6.316520417e-1,1.580081582e0,-2.028817415e0,2.257755250e-1,2.581420636e0
6.416850417e-1,1.302176356e0,-1.942645073e0,-1.674924046e-2,2.338763280e0
6.517180417e-1,9.806312323e-1,-1.654589176e0,-1.640394777e-1,1.930339842e0
6.617510417e-1,5.845826864e-1,-1.497372150e0,-3.153408468e-1,1.638078180e0
6.717840417e-1,2.173672430e-2,-1.537069201e0,-3.929477334e-1,1.586651233e0
6.818170417e-1,-6.647628546e-1,-1.504941344e0,-3.198961616e-1,1.676034503e0
6.918500417e-1,-1.393620014e0,-1.355502486e0,-1.093893349e-1,1.947185086e0
7.018830417e-1,-2.044707775e0,-1.016045928e0,1.359405220e-1,2.287282020e0
7.119160417e-1,-2.525718451e0,-6.498644948e-1,3.268237710e-1,2.628381884e0
7.219490417e-1,-2.735773325e0,-3.669127226e-1,4.618726671e-1,2.798643777e0
7.319820417e-1,-2.673865795e0,-2.353519350e-1,4.563461840e-1,2.722719351e0
7.420150417e-1,-2.400823355e0,-1.696573496e-1,3.196352124e-1,2.427942146e0
7.520480417e-1,-1.978859544e0,-1.426438689e-1,9.318536520e-2,1.986181230e0
7.620810417e-1,-1.477303982e0,-1.072171703e-1,-1.647050232e-1,1.490318865e0
7.721140417e-1,-1.028657436e0,-7.638313621e-2,-3.853166997e-1,1.101108289e0
7.821476667e-1,-7.257981300e-1,-2.796100825e-2,-4.588716030e-1,8.591436967e-1
7.921806667e-1,-4.932014346e-1,-4.787356034e-2,-4.169479609e-1,6.475995174e-1
8.022136667e-1,-2.478089631e-1,-1.721084267e-1,-3.539175987e-1,4.650680159e-1
8.122466667e-1,7.949548773e-3,-3.593333066e-1,-3.023097515e-1,4.696539219e-1
8.222796667e-1,2.040143907e-1,-5.629346371e-1,-2.534367442e-1,6.501903264e-1
8.323126667e-1,2.930193841e-1,-6.202899218e-1,-1.595587879e-1,7.043287253e-1
8.423456667e-1,2.604065835e-1,-2.995316386e-1,-2.242170274e-2,3.975343055e-1
8.523786667e-1,8.777573705e-2,1.973024607e-1,6.884415448e-2,2.266547123e-1
8.624116667e-1,-1.644301414e-1,6.805764437e-1,1.197163910e-1,7.103193517e-1
8.724446667e-1,-4.479820728e-1,9.027236700e-1,8.759878576e-2,1.011568836e0
8.824776667e-1,-6.517179012e-1,9.909139872e-1,3.151953593e-2,1.186440152e0
8.925106667e-1,-7.409659624e-1,8.175736666e-1,-5.202618986e-2,1.104610330e0
9.025436667e-1,-6.927694082e-1,5.330625772e-1,-1.309609562e-1,8.838755208e-1
9.125766667e-1,-5.044989586e-1,2.521315515e-1,-2.037961036e-1,5.996852260e-1
9.226096667e-1,-2.656432390e-1,4.094876722e-2,-1.966092885e-1,3.330140302e-1
9.326426667e-1,-3.527493775e-2,1.490864996e-2,-1.562836915e-1,1.609073687e-1
9.426756667e-1,1.250569373e-1,1.535594761e-1,-1.483900845e-1,2.474658915e-1
9.527086667e-1,1.849161386e-1,2.634726465e-1,-1.771418899e-1,3.674112994e-1
9.627416667e-1,1.574261934e-1,2.592113018e-1,-2.473739684e-1,3.913660506e-1
9.727746667e-1,5.033019185e-2,2.297225893e-1,-3.372850418e-1,4.111773287e-1
9.828076667e-1,-9.421154112e-2,2.417616695e-1,-3.780545592e-1,4.585300089e-1
9.928406667e-1,-2.437079549e-1,3.413472176e-1,-3.541421592e-1,5.489336564e-1
1.002873667e0,-4.012403190e-1,4.722530246e-1,-2.760436237e-1,6.783928029e-1
1.012906667e0,-5.590406060e-1,4.734039903e-1,-2.128997743e-1,7.628656835e-1
1.022939667e0,-6.908702850e-1,4.492872059e-1,-1.927423030e-1,8.463511916e-1
1.032972667e0,-7.915846705e-1,4.567115009e-1,-1.222201660e-1,9.220246497e-1
1.043005667e0,-7.769052982e-1,3.880413771e-1,-1.204949766e-1,8.767422609e-1
1.053038667e0,-6.790956855e-1,3.711485267e-1,-2.350173593e-1,8.087987006e-1
1.063071667e0,-5.258454084e-1,3.193218112e-1,-3.577880263e-1,7.116825728e-1
1.073104667e0,-3.078871071e-1,2.213385105e-1,-3.836745322e-1,5.394361441e-1
1.083137667e0,-3.149758652e-2,1.908972561e-1,-3.224346042e-1,3.760291668e-1
1.093170667e0,2.412008941e-1,1.500839442e-1,-2.664084435e-1,3.894566990e-1
1.103203667e0,4.548479021e-1,8.732442558e-2,-2.887099981e-1,5.457706774e-1
1.113236667e0,5.995446444e-1,1.550070047e-1,-3.492647409e-1,7.109618916e-1
1.123269667e0,6.458189487e-1,3.246120214e-1,-3.246861696e-1,7.923863879e-1
1.133302667e0,5.899130106e-1,5.632712841e-1,-1.320163906e-1,8.262567561e-1
1.143335667e0,4.594056308e-1,7.364774346e-1,1.000631824e-1,8.737649488e-1
1.153368667e0,3.349991143e-1,6.740801930e-1,1.526660919e-1,7.680595347e-1
1.163401667e0,2.853069305e-1,5.654200315e-1,7.808133215e-2,6.381195430e-1
1.173434667e0,3.201776445e-1,6.365981102e-1,-1.343231741e-2,7.127070261e-1
1.183467667e0,4.263956845e-1,8.570522070e-1,-1.132057831e-1,9.639332521e-1
1.193500667e0,6.004791856e-1,1.060752511e0,-2.015731037e-1,1.235476774e0
1.203533667e0,8.122103214e-1,1.051230669e0,-2.218530774e-1,1.346844577e0
1.213566667e0,1.007944107e0,8.280330896e-1,-1.675502807e-1,1.315166612e0
1.223599667e0,1.159362912e0,4.740822315e-1,-6.405878067e-2,1.254184935e0
1.233632667e0,1.257599950e0,1.046346575e-1,2.594833728e-3,1.261948009e0
1.243665667e0,1.309300184e0,-1.435328126e-1,-9.001901373e-3,1.317174884e0
1.253698667e0,1.292225003e0,-2.884183228e-1,-8.245007694e-2,1.326585317e0
1.263731667e0,1.198910832e0,-2.887299061e-1,-2.620970607e-1,1.260732728e0
1.273764667e0,9.865651131e-1,-2.777152956e-1,-4.199214876e-1,1.107596751e0
1.283797667e0,6.874625683e-1,-2.530584335e-1,-4.142143130e-1,8.415562077e-1
1.293830667e0,3.132728040e-1,-3.696835637e-1,-3.079943061e-1,5.741657249e-1
1.303863667e0,-2.563148551e-2,-7.628819346e-1,-3.419855833e-1,8.364209218e-1
1.313896667e0,-2.807541192e-1,-1.120232940e0,-4.675806463e-1,1.245943970e0
1.323929667e0,-4.558681250e-1,-1.053405166e0,-3.933381140e-1,1.213339632e0
1.333962667e0,-5.223937035e-1,-9.200560451e-1,-3.101377487e-1,1.102535138e0
1.343995667e0,-5.028277040e-1,-7.851336598e-1,-2.934852540e-1,9.774477776e-1
1.354028667e0,-4.797882736e-1,-5.937102437e-1,-2.023371160e-1,7.897018105e-1
1.364061667e0,-4.986442327e-1,-3.726228774e-1,-9.476962686e-2,6.296627365e-1
1.374094667e0,-5.438628793e-1,-1.100774929e-1,-4.820005596e-2,5.569803689e-1
1.384127667e0,-6.273183823e-1,3.712314740e-2,-2.952303924e-2,6.291089656e-1
1.394160667e0,-7.268458605e-1,8.940217644e-2,3.074098378e-2,7.329683910e-1
1.404193667e0,-8.081242442e-1,3.698717803e-3,8.270831406e-2,8.123540729e-1
1.414226667e0,-8.739724159e-1,-1.401542723e-1,1.123471409e-1,8.922403734e-1
1.424259667e0,-8.822093010e-1,-2.588239610e-1,1.599191874e-1,9.331973211e-1
1.434292667e0,-8.344559669e-1,-2.669091821e-1,2.362641543e-1,9.074017979e-1
1.444325667e0,-7.186308503e-1,-7.835764438e-2,3.238909245e-1,7.921335433e-1
1.454358667e0,-5.399811864e-1,9.609816223e-2,3.127609491e-1,6.313746509e-1
1.464391667e0,-3.127536774e-1,2.358773500e-1,2.919347584e-1,4.885477358e-1
1.474424667e0,-6.956078857e-2,3.394429386e-1,2.999026179e-1,4.582595248e-1
1.484457667e0,1.558672637e-1,2.063405663e-1,2.775709629e-1,3.793635099e-1
1.494490667e0,3.764567673e-1,-9.867063910e-2,2.292126268e-1,4.516569727e-1
1.504523667e0,5.607440472e-1,-5.015416741e-1,2.172172219e-1,7.830461409e-1
1.514556667e0,6.589326262e-1,-6.674059629e-1,2.384593338e-1,9.677219534e-1
1.524589667e0,6.494293809e-1,-5.663864017e-1,2.876673341e-1,9.084627520e-1
1.534622667e0,5.456897616e-1,-3.063983917e-1,3.587894142e-1,7.213786344e-1
1.544655667e0,3.944898546e-1,-1.059598178e-1,4.153949022e-1,5.825827436e-1
1.554688667e0,2.209305167e-1,-4.441810772e-2,4.510423243e-1,5.042047598e-1
1.564721667e0,2.986867353e-2,-1.289055496e-1,4.542570114e-1,4.731365668e-1
1.574754667e0,-1.445275694e-1,-2.980901301e-1,4.105583131e-1,5.275453274e-1
1.584787667e0,-2.819394767e-1,-3.896903396e-1,3.445540071e-1,5.916636655e-1
1.594820667e0,-3.823370636e-1,-3.298948109e-1,2.946574390e-1,5.846667622e-1
1.604853667e0,-4.834615588e-1,-1.574295610e-1,3.013233244e-1,5.910286722e-1
1.614886667e0,-5.350859761e-1,-2.085323073e-2,2.910471261e-1,6.094754209e-1
1.624919667e0,-5.301615596e-1,2.010053843e-1,2.082031369e-1,6.040057864e-1
1.634952667e0,-4.695697725e-1,4.783003330e-1,8.987601846e-2,6.762726362e-1
1.644985667e0,-3.484169841e-1,6.198816895e-1,-1.132197399e-2,7.111792256e-1
1.655017667e0,-1.902593672e-1,5.980843902e-1,-6.259990484e-2,6.307315694e-1
1.665050667e0,-6.959286332e-2,4.809297621e-1,-6.686815619e-2,4.905180456e-1
1.675083667e0,7.135940250e-3,2.911094129e-1,-4.348574206e-2,2.944259188e-1
1.685116667e0,4.955503717e-2,1.789753884e-1,-1.902008057e-2,1.866806225e-1
1.695149667e0,8.055716008e-2,1.873688847e-1,-1.231237687e-2,2.043236394e-1
1.705182667e0,9.276003391e-2,2.537481785e-1,-1.529857982e-2,2.706041547e-1
1.715215667e0,8.474476635e-2,3.355810642e-1,-1.712319441e-2,3.465393627e-1
1.725248667e0,5.343105271e-2,4.076001346e-1,-9.309745394e-3,4.111926781e-1
1.735281667e0,-9.290901944e-3,3.944895267e-1,2.047678456e-2,3.951298600e-1
1.745314667e0,-1.031002179e-1,3.372696340e-1,5.795997754e-2,3.574070788e-1
1.755347667e0,-1.973395050e-1,2.869818211e-1,7.305412740e-2,3.558628266e-1
1.765380667e0,-2.890411913e-1,2.351250052e-1,6.464227289e-2,3.781629303e-1
1.775413667e0,-3.793508708e-1,2.235280722e-1,3.528454900e-2,4.417203659e-1
1.785446292e0,-4.843800664e-1,3.443423510e-1,1.124498993e-2,5.944090790e-1
1.795479292e0,-5.944842696e-1,5.440028310e-1,5.648566410e-3,8.058427472e-1
1.805512292e0,-6.916856766e-1,7.713965774e-1,-1.313468907e-3,1.036090479e0
1.815545292e0,-7.697191834e-1,8.992874622e-1,-2.238021791e-2,1.183928391e0
1.825578292e0,-8.419638276e-1,8.223258257e-1,-2.338183299e-2,1.177144664e0
1.835611292e0,-9.527319074e-1,5.645602345e-1,1.606136374e-2,1.107557815e0
1.845644292e0,-1.105050087e0,2.642328739e-1,7.605572790e-2,1.138744563e0
1.855677292e0,-1.290305495e0,-2.246909030e-2,1.316307336e-1,1.297196894e0
1.865710292e0,-1.490025282e0,-2.800723910e-1,1.688516140e-1,1.525492298e0
1.875743292e0,-1.654436588e0,-4.504736960e-1,1.975194663e-1,1.726007218e0
1.885776292e0,-1.761223435e0,-6.257951856e-1,2.186154276e-1,1.881839608e0
1.895809292e0,-1.788010955e0,-8.448960185e-1,2.251630276e-1,1.990359477e0
1.905842292e0,-1.725604653e0,-1.063677669e0,2.312044054e-1,2.040239466e0
1.915875292e0,-1.569172978e0,-1.213524938e0,2.511658370e-1,1.999507661e0
1.925908292e0,-1.325130582e0,-1.227800846e0,2.601808906e-1,1.825146589e0
1.935941292e0,-1.027623296e0,-1.026309371e0,2.858456075e-1,1.480212240e0
1.945974292e0,-7.159766555e-1,-6.424452662e-1,3.364286125e-1,1.019089153e0
1.956007292e0,-4.485010505e-1,-1.512506008e-1,3.860990703e-1,6.108211102e-1
1.966040292e0,-3.014005423e-1,2.541863620e-1,4.148319066e-1,5.723097974e-1
1.976073292e0,-2.877708673e-1,5.041632056e-1,3.861528337e-1,6.972134687e-1
1.986106292e0,-4.129565060e-1,6.388893127e-1,3.247978389e-1,8.271676166e-1
1.996139292e0,-6.593744159e-1,8.031100035e-1,2.531886399e-1,1.069516145e0
2.006172292e0,-9.758812189e-1,1.087580562e0,1.744938195e-1,1.471605832e0
2.016205292e0,-1.290255666e0,1.357628226e0,8.800695091e-2,1.875009149e0
2.026238292e0,-1.559979796e0,1.551729560e0,2.776305377e-2,2.200493667e0
2.036271292e0,-1.746603727e0,1.637873411e0,1.290084887e-2,2.394456164e0
2.046304292e0,-1.854319811e0,1.606729507e0,1.479355711e-2,2.453630070e0
2.056337292e0,-1.878771663e0,1.525567770e0,-8.394458331e-3,2.420167442e0
2.066370292e0,-1.793297291e0,1.439258933e0,-4.158437252e-2,2.299806668e0
2.076403292e0,-1.581798077e0,1.225897431e0,-8.306532353e-2,2.002950203e0
2.086436292e0,-1.230364084e0,9.131864309e-1,-1.037684679e-1,1.535732116e0
2.096469292e0,-7.274323702e-1,6.235717535e-1,-8.459296077e-2,9.618500683e-1
2.106502292e0,-9.071978182e-2,3.851024806e-1,-6.522964686e-2,4.009849202e-1
2.116535292e0,6.329957843e-1,1.809307486e-1,-9.716606885e-2,6.654779062e-1
2.126568292e0,1.350260139e0,-9.504996985e-2,-1.712051332e-1,1.364385626e0
2.136601292e0,1.976278067e0,-4.134652615e-1,-2.300074399e-1,2.032124982e0
2.146634292e0,2.456728935e0,-6.412782073e-1,-2.488458306e-1,2.551211290e0
2.156667292e0,2.813653708e0,-8.019626737e-1,-1.962340027e-1,2.932285644e0
2.166700292e0,3.105665207e0,-8.850266933e-1,-6.440672278e-2,3.229949977e0
2.176733292e0,3.373981476e0,-8.358122706e-1,1.215543225e-1,3.478089792e0
2.186766292e0,3.631829500e0,-5.886610746e-1,3.069063127e-1,3.692004722e0
2.196799292e0,3.877145052e0,-1.774980724e-1,4.224731922e-1,3.904131519e0
2.206832292e0,4.110529900e0,3.566001952e-1,4.758887589e-1,4.153322750e0
2.216865292e0,4.321744442e0,7.967929840e-1,5.494762063e-1,4.428800987e0
2.226898292e0,4.575105190e0,1.025991321e0,7.325171232e-1,4.745611344e0
2.236931292e0,4.996100903e0,9.877741933e-1,1.010200262e0,5.192034924e0
2.246964292e0,5.743707657e0,5.470838547e-1,1.294332981e0,5.913102084e0
2.256997292e0,6.896914959e0,-3.747019172e-1,1.622951031e0,7.095196088e0
2.267030292e0,8.467939377e0,-1.687781453e0,2.007151365e0,8.864719969e0
2.277063292e0,1.034945107e1,-3.327606201e0,2.134719610e0,1.107885952e1
2.287096292e0,1.235609913e1,-5.083537102e0,1.572459221e0,1.345318413e1
2.297129292e0,1.428174496e1,-7.030356407e0,9.249355793e-1,1.594520793e1
2.307162292e0,1.604444122e1,-9.661703110e0,-3.676581681e-1,1.873253249e1
2.317195292e0,1.703155136e1,-1.168539047e1,-1.938488483e0,2.074559784e1
2.327228292e0,1.682614326e1,-1.298091602e1,-3.184135199e0,2.148864805e1
2.337261292e0,1.630361938e1,-1.357034874e1,-4.435137272e0,2.167101319e1
2.347294292e0,1.558372402e1,-1.432100677e1,-5.702494144e0,2.191944636e1
2.357327292e0,1.463371372e1,-1.520863247e1,-6.976170540e0,2.222869844e1
2.367360292e0,1.343360901e1,-1.620283890e1,-8.244413376e0,2.260451705e1
2.377393292e0,1.193367672e1,-1.723848534e1,-9.470028877e0,2.300563982e1
2.387426292e0,1.013200855e1,-1.825036240e1,-1.061250496e1,2.341705760e1
2.397459292e0,8.026951790e0,-1.915813828e1,-1.161087513e1,2.379660981e1
2.407492292e0,5.651513577e0,-1.988690567e1,-1.240962505e1,2.411280607e1
2.417525292e0,3.063096523e0,-2.037096405e1,-1.294684029e1,2.433062700e1
2.427558292e0,3.478437960e-1,-2.056148720e1,-1.318939877e1,2.443063632e1
2.437591292e0,-2.384705305e0,-2.042565346e1,-1.310818768e1,2.438685553e1
2.447624292e0,-5.035021305e0,-1.997549629e1,-1.272176933e1,2.421188358e1
2.457657292e0,-7.494288921e0,-1.924484253e1,-1.204788494e1,2.390982773e1
2.467690292e0,-9.692550659e0,-1.830399704e1,-1.114504910e1,2.352007579e1
2.477723292e0,-1.158910942e1,-1.722491837e1,-1.007915688e1,2.307801277e1
2.487756292e0,-1.317802143e1,-1.610166740e1,-8.905577660e0,2.263257068e1
2.497789292e0,-1.446341228e1,-1.499357224e1,-7.671457291e0,2.220019730e1
2.507822292e0,-1.549645805e1,-1.396796799e1,-6.425417423e0,2.182957469e1
2.517855292e0,-1.627893829e1,-1.306416512e1,-5.186255932e0,2.150752177e1
2.527888292e0,-1.686622047e1,-1.231716728e1,-3.965666056e0,2.125813986e1
2.537921292e0,-1.727232170e1,-1.173271561e1,-2.770068884e0,2.106330919e1
2.547954292e0,-1.752818108e1,-1.133521271e1,-1.596767306e0,2.093499092e1
2.557986292e0,-1.763692284e1,-1.112134075e1,-4.406088889e-1,2.085520087e1
2.568019292e0,-1.761388779e1,-1.110801792e1,7.080262899e-1,2.083598825e1
2.578052292e0,-1.746455383e1,-1.128568840e1,1.858318925e0,2.087655988e1
2.588085292e0,-1.717577362e1,-1.165277290e1,3.025899410e0,2.097499423e1
2.598118292e0,-1.673381996e1,-1.219530296e1,4.210277081e0,2.112989773e1
2.608151292e0,-1.612046051e1,-1.291320515e1,5.414651871e0,2.135271807e1
2.618184292e0,-1.530278492e1,-1.377946472e1,6.633606911e0,2.163454679e1
2.628217292e0,-1.425961876e1,-1.477253628e1,7.856655121e0,2.198389376e1
2.638250292e0,-1.295102310e1,-1.583237457e1,9.055418968e0,2.236948137e1
2.648283292e0,-1.135858536e1,-1.691648483e1,1.019394588e1,2.278379804e1
2.658316292e0,-9.468482018e0,-1.794966888e1,1.122120667e1,2.318961500e1
2.668349292e0,-7.301827908e0,-1.885756302e1,1.208489323e1,2.355778042e1
2.678382292e0,-4.892666817e0,-1.955156898e1,1.272387600e1,2.383482869e1
2.688415292e0,-2.316532850e0,-1.998036957e1,1.308651543e1,2.399663265e1
2.698448292e0,3.404381871e-1,-2.009982491e1,1.314844418e1,2.402083353e1
2.708481292e0,2.967002869e0,-1.990329933e1,1.290650940e1,2.390653499e1
2.718514292e0,5.467388630e0,-1.940680122e1,1.237615395e1,2.365767230e1
2.728547292e0,7.756330013e0,-1.867190742e1,1.160492706e1,2.331255272e1
2.738580292e0,9.782790184e0,-1.775799942e1,1.063808250e1,2.289581461e1
2.748613292e0,1.151908588e1,-1.675599480e1,9.548565865e0,2.246392244e1
2.758646292e0,1.296228123e1,-1.572186279e1,8.380028725e0,2.203230777e1
2.768679292e0,1.413361931e1,-1.473108673e1,7.175188065e0,2.163902574e1
2.778712083e0,1.506008148e1,-1.382536983e1,5.966488361e0,2.129661684e1
2.788745083e0,1.577136421e1,-1.304128647e1,4.774235725e0,2.101438575e1
2.798778083e0,1.629262733e1,-1.240179920e1,3.605696917e0,2.079075225e1
2.808811083e0,1.664729500e1,-1.192383862e1,2.465850830e0,2.062500372e1
2.818844083e0,1.685316849e1,-1.161754799e1,1.347579122e0,2.051371928e1
2.828877083e0,1.692437172e1,-1.147760963e1,2.421692014e-1,2.045063635e1
2.838910083e0,1.686718941e1,-1.150284672e1,-8.557631969e-1,2.043403758e1
2.848943083e0,1.668068123e1,-1.169679928e1,-1.957206249e0,2.046682428e1
2.858976083e0,1.635836220e1,-1.204725647e1,-3.065080881e0,2.054573248e1
2.869009083e0,1.589046001e1,-1.254643726e1,-4.190983295e0,2.067568979e1
2.879042083e0,1.524843407e1,-1.318504715e1,-5.331132889e0,2.085140733e1
2.889075083e0,1.442528725e1,-1.395850849e1,-6.477108479e0,2.109222145e1
2.899108083e0,1.338520050e1,-1.483042908e1,-7.624826431e0,2.138324571e1
2.909141083e0,1.210806561e1,-1.578122425e1,-8.747344971e0,2.172943477e1
2.919174083e0,1.057721043e1,-1.676216507e1,-9.816135406e0,2.211795815e1
2.929207083e0,8.774106979e0,-1.771412659e1,-1.079114246e1,2.252163381e1
2.939240083e0,6.728237629e0,-1.854814911e1,-1.162098694e1,2.289869766e1
2.949273083e0,4.461299419e0,-1.920054054e1,-1.226105595e1,2.321416470e1
2.959306083e0,2.044523954e0,-1.958440590e1,-1.265291786e1,2.340566946e1
2.969339083e0,-4.516015649e-1,-1.965442467e1,-1.277952003e1,2.344816593e1
2.979372083e0,-2.932296515e0,-1.939822578e1,-1.262560558e1,2.333014022e1
2.989405083e0,-5.309407711e0,-1.884803963e1,-1.220845890e1,2.307563383e1
2.999438083e0,-7.512389660e0,-1.806203461e1,-1.155828094e1,2.272150855e1
3.009471083e0,-9.487705231e0,-1.713830757e1,-1.072470093e1,2.233287592e1
3.019504083e0,-1.120809078e1,-1.616374969e1,-9.752689362e0,2.195456793e1
3.029537083e0,-1.267857170e1,-1.522671509e1,-8.688081741e0,2.163519811e1
3.039570083e0,-1.389357185e1,-1.436015987e1,-7.564475060e0,2.136508398e1
3.049603083e0,-1.487580872e1,-1.359396935e1,-6.409802914e0,2.114642431e1
3.059636083e0,-1.563865185e1,-1.291518211e1,-5.240192413e0,2.094824521e1
3.069669083e0,-1.621864128e1,-1.234536076e1,-4.072896481e0,2.078558979e1
3.079702083e0,-1.661992836e1,-1.190950584e1,-2.905804873e0,2.065192606e1
3.089735083e0,-1.685226440e1,-1.157471180e1,-1.755925298e0,2.051965015e1
3.099768083e0,-1.692412949e1,-1.137501431e1,-6.232460141e-1,2.040111627e1
3.109801083e0,-1.685131836e1,-1.132163048e1,5.007629991e-1,2.030756043e1
3.119834083e0,-1.664387703e1,-1.141202641e1,1.617763877e0,2.024525004e1
3.129867083e0,-1.633402824e1,-1.167971230e1,2.731189966e0,2.026513155e1
3.139900083e0,-1.590885544e1,-1.213351250e1,3.853425741e0,2.037554163e1
3.149933083e0,-1.533937263e1,-1.274254322e1,4.987076283e0,2.055577025e1
3.159965083e0,-1.461433792e1,-1.349015617e1,6.129776478e0,2.081195200e1
3.169998083e0,-1.369863701e1,-1.435845757e1,7.267000198e0,2.113355747e1
3.180031083e0,-1.258346462e1,-1.526934242e1,8.388486862e0,2.149100072e1
3.190064083e0,-1.123434925e1,-1.615013695e1,9.458484650e0,2.182889045e1
3.200097083e0,-9.631158829e0,-1.692363167e1,1.043758011e1,2.209324801e1
3.210130083e0,-7.785852909e0,-1.753787041e1,1.128414345e1,2.226046489e1
3.220163083e0,-5.729106426e0,-1.797324562e1,1.195017242e1,2.233084950e1
3.230196083e0,-3.516270876e0,-1.824652290e1,1.239847088e1,2.233879672e1
3.240229083e0,-1.211798668e0,-1.836575890e1,1.260392570e1,2.230758837e1
3.250262083e0,1.127156615e0,-1.835387421e1,1.256551552e1,2.227167171e1
3.260295083e0,3.426671505e0,-1.825194168e1,1.227838993e1,2.226284600e1
3.270328083e0,5.607267380e0,-1.809775734e1,1.176065350e1,2.229984840e1
3.280361083e0,7.587245464e0,-1.786998177e1,1.102708149e1,2.232709270e1
3.290394083e0,2.145783901e0,-2.675283241e1,-4.943833649e-1,2.684330169e1
3.300427083e0,-2.719216156e1,-3.231399918e1,-2.272564411e0,4.229388540e1
3.310460083e0,-2.686902428e1,-1.473798656e1,-5.496170521e0,3.113455643e1
3.320493083e0,-1.577718973e0,-4.915283680e0,1.085949063e0,5.275272143e0
3.330526083e0,2.897294760e0,7.532740831e-1,5.387462616e0,6.163318279e0
3.340559083e0,2.695595741e0,6.072444439e0,6.292407036e0,9.150694191e0
3.350592083e0,2.315489531e0,7.075572014e0,6.511155605e0,9.890417504e0
3.360625083e0,1.804549575e0,7.285131931e0,6.588957310e0,9.987187034e0
3.370658083e0,1.283126354e0,7.450711727e0,6.644492626e0,1.006522731e1
3.380691083e0,7.660937309e-1,7.544663429e0,6.676100254e0,1.010342321e1
3.390724083e0,2.585360408e-1,7.594222069e0,6.693482876e0,1.012629067e1
3.400757083e0,-2.465156317e-1,7.602533340e0,6.681992054e0,1.012463831e1
3.410790083e0,-7.499366999e-1,7.578575611e0,6.658989906e0,1.011629181e1
3.420823083e0,-1.245744348e0,7.518419266e0,6.612289906e0,1.008964246e1
3.430856083e0,-1.728747249e0,7.424414635e0,6.544059753e0,1.004665207e1
3.440889083e0,-2.202056408e0,7.299302578e0,6.453222752e0,9.988641270e0
3.450922083e0,-2.655930042e0,7.142221928e0,6.350965500e0,9.919680501e0
3.460955083e0,-3.091997147e0,6.965727329e0,6.232201576e0,9.844904269e0
3.470988083e0,-3.507895947e0,6.762839794e0,6.096359253e0,9.757403968e0
3.481021083e0,-3.897745848e0,6.542334557e0,5.954260826e0,9.666839511e0
3.491054083e0,-4.267582417e0,6.306437969e0,5.802150726e0,9.573315653e0
3.501087083e0,-4.616209030e0,6.060206890e0,5.644490242e0,9.481337640e0
3.511120083e0,-4.942574978e0,5.803289413e0,5.481434822e0,9.389001179e0
3.521153083e0,-5.240402699e0,5.535489559e0,5.313121796e0,9.291540686e0
3.531186083e0,-5.515268326e0,5.264390469e0,5.149629593e0,9.200580235e0
3.541219083e0,-5.773135185e0,4.987732410e0,4.987042904e0,9.114667377e0
3.551252083e0,-6.004778862e0,4.711582184e0,4.825610161e0,9.030110148e0
3.561285083e0,-6.212960243e0,4.433505058e0,4.666323185e0,8.946027842e0
3.571318083e0,-6.406941891e0,4.154364586e0,4.516450882e0,8.871638973e0
3.581351083e0,-6.579674244e0,3.876309633e0,4.369163990e0,8.798152278e0
3.591384083e0,-6.734530926e0,3.607474804e0,4.231402874e0,8.733415800e0
3.601417083e0,-6.872053623e0,3.333550930e0,4.101951599e0,8.669699518e0
3.611450083e0,-6.992422104e0,3.071341991e0,3.978928328e0,8.611560784e0
3.621483083e0,-7.097174644e0,2.811794996e0,3.864006042e0,8.556086824e0
3.631516083e0,-7.188982487e0,2.557216644e0,3.761883259e0,8.507208227e0
3.641549083e0,-7.265473366e0,2.308324814e0,3.665721416e0,8.458899466e0
3.651581083e0,-7.334652424e0,2.064979076e0,3.582780123e0,8.420069962e0
3.661614083e0,-7.386238098e0,1.825757504e0,3.506796837e0,8.377799697e0
3.671647083e0,-7.437623024e0,1.586572886e0,3.441505194e0,8.347419228e0
3.681680083e0,-7.478058815e0,1.350231290e0,3.384721279e0,8.318703403e0
3.691713083e0,-7.512701035e0,1.114226222e0,3.340540171e0,8.297070901e0
3.701746083e0,-7.536620617e0,8.795629144e-1,3.300674200e0,8.274583459e0
3.711779083e0,-7.558483601e0,6.419577599e-1,3.276546240e0,8.263082922e0
3.721812083e0,-7.569064617e0,3.994337916e-1,3.261539936e0,8.251541025e0
3.731845083e0,-7.573167324e0,1.553793252e-1,3.256386042e0,8.245062529e0
3.741878083e0,-7.569020271e0,-9.608713537e-2,3.262985706e0,8.242959197e0
3.751911083e0,-7.562122345e0,-3.514342308e-1,3.278417349e0,8.249680036e0
3.761944083e0,-7.542453289e0,-6.163546443e-1,3.306170940e0,8.258284383e0
3.771977083e0,-7.519731045e0,-8.860407472e-1,3.343956709e0,8.277286371e0
3.782010542e0,-7.483178139e0,-1.169808626e0,3.394473791e0,8.299931301e0
3.792043542e0,-7.776994705e0,-2.129088640e0,3.328563213e0,8.723187385e0
3.802076542e0,-9.065240860e0,-4.643370152e0,2.881100893e0,1.058490532e1
3.812109542e0,-1.094023418e1,-7.069462299e0,1.767473459e0,1.314496039e1
3.822142542e0,-1.465462589e1,-8.188341141e0,4.350077808e-1,1.679274315e1
3.832175542e0,-1.978544807e1,-1.367932081e0,-1.279883385e0,1.987393507e1
3.842208542e0,-2.116619873e1,8.962624550e0,-3.694267750e0,2.328055458e1
3.852241542e0,-1.386108780e1,6.302911282e0,-4.646986485e0,1.592014224e1
3.862274542e0,1.917547584e0,-7.642770767e0,-9.479541183e-1,7.936469665e0
3.872307542e0,6.024721622e0,-3.682919979e0,2.780692339e0,7.589032882e0
3.882340542e0,2.665804148e0,4.626551151e0,2.886500120e0,6.069873990e0
3.892373542e0,1.717682481e-1,8.796500206e0,1.657965422e0,8.953031305e0
3.902406542e0,-8.924090862e-1,9.876137733e0,6.855841279e-1,9.940046082e0
3.912439542e0,-1.259307504e0,9.188966751e0,5.903303623e-3,9.274858500e0
3.922472542e0,-1.243246913e0,7.970205784e0,-2.770326138e-1,8.071343766e0
3.932505542e0,-1.141829491e0,6.848716259e0,-3.668921888e-1,6.952934550e0
3.942538542e0,-1.016225219e0,5.925161839e0,-4.138014019e-1,6.025901435e0
3.952571542e0,-9.721698761e-1,5.268019199e0,-4.852814376e-1,5.378906824e0
3.962604542e0,-1.087047100e0,5.128184795e0,-5.427844524e-1,5.270158029e0
3.972637542e0,-1.346347928e0,5.526617527e0,-5.356402397e-1,5.713410934e0
3.982670542e0,-1.807888865e0,5.843833447e0,-4.876523614e-1,6.136501962e0
3.992703542e0,-2.223822594e0,5.538450718e0,-4.389111698e-1,5.984351786e0
4.002736542e0,-2.284429073e0,4.947526455e0,-4.154973626e-1,5.465278792e0
4.012769542e0,-2.127350330e0,4.352682590e0,-2.963871956e-1,4.853793417e0
4.022802542e0,-1.954885125e0,4.007329941e0,-5.774055421e-2,4.459103394e0
4.032835542e0,-1.867286325e0,4.036742210e0,2.593905330e-1,4.455258616e0
4.042868542e0,-1.841744900e0,4.205186844e0,6.270382404e-1,4.633443387e0
4.052901542e0,-1.938326597e0,4.259078979e0,9.763594270e-1,4.780182160e0
4.062934542e0,-2.220647573e0,3.781394482e0,1.220582962e0,4.551927354e0
4.072966542e0,-2.571670055e0,2.751437426e0,1.383370638e0,4.012182586e0
4.082999542e0,-2.798587799e0,1.481122494e0,1.463637590e0,3.488273571e0
4.093032542e0,-2.788505554e0,1.859699488e-1,1.507081151e0,3.175160097e0
4.103065542e0,-2.637063742e0,-1.099741459e0,1.700517535e0,3.324950577e0
4.113098542e0,-2.607867241e0,-2.359673738e0,2.197093487e0,4.146836323e0
4.123131542e0,-2.675370693e0,-3.077796221e0,2.854199171e0,4.977639082e0
4.133164542e0,-2.817449808e0,-3.485027552e0,3.491689444e0,5.681138585e0
4.143197542e0,-2.818605900e0,-4.003814220e0,4.003023148e0,6.324496964e0
4.153230542e0,-2.599954844e0,-4.780589104e0,4.358202934e0,6.971924425e0
4.163263542e0,-2.233436346e0,-5.641750336e0,4.594038486e0,7.610701307e0
4.173296542e0,-1.762820601e0,-6.250287056e0,4.699630737e0,8.016243124e0
4.183329542e0,-5.956202149e-1,-5.522870064e0,4.183808327e0,6.954215218e0
4.193362542e0,8.844650984e-1,-4.925221920e0,3.305269718e0,5.997074068e0
4.203395542e0,1.830127358e0,-5.085668564e0,2.834757805e0,6.103215767e0
4.213428542e0,2.256947994e0,-5.216677189e0,2.746950388e0,6.312944763e0
4.223461542e0,2.449735880e0,-5.922708511e0,2.651647329e0,6.936203252e0
4.233494542e0,2.292567015e0,-7.365789890e0,2.298730850e0,8.049527175e0
4.243527542e0,1.686200261e0,-9.058861732e0,1.630335569e0,9.357576678e0
4.253560542e0,3.416218460e-1,-9.969983101e0,8.572803736e-1,1.001260197e1
4.263593542e0,-2.065113783e0,-8.236042023e0,7.711539268e-1,8.525946371e0
4.273626542e0,-3.470014334e0,-6.315962791e0,6.046190262e-1,7.231732132e0
4.283659542e0,-3.548637629e0,-5.902077198e0,1.543520540e-1,6.888480879e0
4.293692542e0,-3.324259043e0,-5.482460022e0,-5.001253262e-2,6.411752282e0
4.303725542e0,-2.980586052e0,-4.793742657e0,-9.134346992e-2,5.645547405e0
4.313758542e0,-2.395214319e0,-3.768529415e0,-2.000190765e-1,4.469773285e0
4.323791542e0,-1.322835445e0,-1.868425965e0,-3.427008390e-1,2.314811670e0
4.333824542e0,-9.047383070e-2,-1.682990789e-1,-3.566978872e-1,4.046522912e-1
4.343857542e0,9.044645429e-1,1.413353920e0,-2.898043990e-1,1.702824713e0
4.353890542e0,1.492718458e0,2.636762381e0,-1.364734471e-1,3.033042903e0
4.363923542e0,1.801387429e0,3.218485832e0,4.582695663e-3,3.688315161e0
4.373956542e0,1.911817193e0,2.764049530e0,-1.528342068e-2,3.360840426e0
4.383989542e0,1.668598652e0,1.681659341e0,-8.170297742e-2,2.370416625e0
4.394022542e0,1.047412634e0,5.976778865e-1,-1.261133105e-1,1.212516659e0
4.404055542e0,2.536592484e-1,-1.630745977e-1,-1.843503118e-1,3.534421822e-1
4.414088542e0,-4.325372279e-1,-5.146334171e-1,-1.725967079e-1,6.940645727e-1
4.424121542e0,-7.620456219e-1,-7.131999135e-1,-1.119794995e-1,1.049717607e0
4.434153542e0,-7.116748691e-1,-1.064611435e0,-7.853924483e-2,1.282983647e0
4.444186542e0,-4.600677192e-1,-1.471899033e0,-7.077629119e-2,1.543748150e0
4.454219542e0,-2.230543792e-1,-1.670255780e0,-8.121588826e-2,1.687039907e0
4.464252542e0,-1.129965857e-1,-1.541366816e0,-9.864414483e-2,1.548647977e0
4.474285542e0,-1.437238753e-1,-1.188457966e0,-5.763226375e-2,1.198503386e0
4.484318542e0,-2.287992239e-1,-8.507949114e-1,7.185701281e-2,8.839482430e-1
4.494351542e0,-2.642557621e-1,-6.179731488e-1,2.054204047e-1,7.027940403e-1
4.504384542e0,-2.221724093e-1,-3.630960882e-1,2.436700612e-1,4.904838911e-1
4.514417542e0,-1.137303486e-1,4.796841741e-2,1.762196571e-1,2.151486203e-1
4.524450542e0,2.778609842e-2,5.389615893e-1,5.396164209e-2,5.423684365e-1
4.534483542e0,1.781255305e-1,9.455738068e-1,-8.010029048e-2,9.655333165e-1
4.544516542e0,2.993953228e-1,1.135850310e0,-1.696139723e-1,1.186828710e0
4.554549542e0,3.395152986e-1,1.136588216e0,-1.846973151e-1,1.200506772e0
4.564582542e0,2.828988135e-1,1.012907982e0,-1.452052444e-1,1.061649133e0
4.574615542e0,1.690010130e-1,7.967550159e-1,-1.043984368e-1,8.211448906e-1
4.584648542e0,5.054533482e-2,5.082102418e-1,-8.228375763e-2,5.173036802e-1
4.594681542e0,-2.357309870e-2,1.938101947e-1,-5.724338815e-2,2.034573372e-1
4.604714542e0,-4.252521694e-2,-1.137375385e-1,-2.399526071e-3,1.214511402e-1
4.614747542e0,-1.765768230e-2,-3.969513774e-1,5.955279246e-2,4.017819369e-1
4.624780542e0,1.096223760e-2,-6.316991448e-1,1.033060178e-1,6.401844371e-1
4.634813542e0,7.424760610e-3,-7.964342833e-1,1.130470634e-1,8.044515729e-1
4.644846542e0,-5.111018196e-2,-8.944109678e-1,8.787683398e-2,9.001697440e-1
4.654879542e0,-1.347571462e-1,-9.213395119e-1,5.164959654e-2,9.325736783e-1
4.664912542e0,-2.174795270e-1,-8.683646917e-1,2.325124294e-2,8.954860149e-1
4.674945542e0,-2.481580675e-1,-7.388399839e-1,5.952679552e-3,7.794243919e-1
4.684978542e0,-2.199745178e-1,-5.218499303e-1,-5.631329492e-3,5.663460515e-1
4.695011542e0,-1.397052407e-1,-2.330748439e-1,-2.027232386e-2,2.724929435e-1
4.705044542e0,-2.046199888e-2,8.306001127e-2,-2.952473052e-2,9.049513016e-2
4.715077542e0,9.312315285e-2,3.697074950e-1,-2.933724411e-2,3.823823052e-1
4.725110542e0,1.796491295e-1,5.715194941e-1,-2.103616670e-2,5.994588077e-1
4.735143542e0,2.028274238e-1,6.636403799e-1,-1.143866777e-2,6.940377229e-1
4.745176542e0,1.684631854e-1,6.627739668e-1,-9.746442549e-3,6.839182473e-1
4.755209542e0,1.015006602e-1,5.933855772e-1,-1.703285053e-2,6.022449213e-1
4.765242542e0,3.411961347e-2,4.751209021e-1,-2.215917781e-2,4.768595692e-1
4.775275542e0,-5.616612732e-3,3.249039948e-1,-2.585245110e-2,3.259792960e-1
4.785307708e0,-1.348152105e-2,1.574644148e-1,-2.714514360e-2,1.603547697e-1
4.795340708e0,-6.917361636e-3,-5.765522830e-3,-2.288302034e-2,2.459113185e-2
4.805373708e0,1.474397373e-3,-1.544361413e-1,-1.097794063e-2,1.548328478e-1
4.815406708e0,-4.949413240e-3,-2.759449780e-1,8.373652585e-3,2.761163625e-1
4.825439708e0,-2.641009167e-2,-3.707809150e-1,2.470921539e-2,3.725406357e-1
4.835472708e0,-5.716507509e-2,-4.222776592e-1,3.666175157e-2,4.277035788e-1
4.845505708e0,-8.264587820e-2,-4.114483893e-1,3.954983875e-2,4.215261652e-1
4.855538708e0,-8.406694233e-2,-3.513219357e-1,3.509889916e-2,3.629411605e-1
4.865571708e0,-6.683401763e-2,-2.541465759e-1,2.026930079e-2,2.635680415e-1
4.875604708e0,-2.879901603e-2,-1.366572380e-1,1.405598596e-3,1.396658861e-1
4.885637708e0,1.340581942e-2,-1.728055812e-2,-1.663172990e-2,2.747631931e-2
4.895670708e0,3.784591332e-2,9.325047582e-2,-2.524412610e-2,1.037556278e-1
4.905703708e0,4.972608015e-2,1.648321748e-1,-2.889893949e-2,1.745779986e-1
4.915736708e0,4.408257455e-2,1.968100816e-1,-2.559422329e-2,2.033040724e-1
4.925769708e0,3.037721291e-2,1.939354092e-1,-1.507069077e-2,1.968777380e-1
4.935802708e0,1.832694188e-2,1.677456051e-1,-8.090279065e-3,1.689376141e-1
4.945835708e0,7.258705795e-3,1.219010577e-1,-6.239861250e-5,1.221169954e-1
4.955868708e0,6.615818478e-3,6.865701079e-2,5.917995702e-3,6.922843966e-2
4.965901708e0,5.564418156e-3,7.367669605e-3,9.508478455e-3,1.325354546e-2
4.975934708e0,-1.099876361e-3,-4.994462430e-2,9.119656868e-3,5.078231352e-2
4.985967708e0,-1.132595446e-2,-9.312362969e-2,5.420312285e-3,9.396631011e-2
4.996000708e0,-2.652887441e-2,-1.156931221e-1,3.806385212e-5,1.186957503e-1
5.006033708e0,-3.278989717e-2,-1.211124733e-1,1.000638003e-3,1.254767302e-1
5.016066708e0,-3.445437178e-2,-9.412133694e-2,-2.054274082e-3,1.002504356e-1
5.026099708e0,-2.147086896e-2,-5.402348191e-2,3.525312524e-3,5.824055837e-2
5.036132708e0,-4.079894628e-3,-2.639119513e-3,1.086922130e-3,4.979145680e-3
5.046165708e0,1.421116758e-2,4.291877151e-2,2.215093467e-3,4.526460947e-2
5.056198708e0,2.536608279e-2,8.284168690e-2,-5.990688223e-4,8.664030314e-2
5.066231708e0,2.781525627e-2,1.013811976e-1,-2.210229402e-3,1.051509430e-1
5.076264708e0,2.335898951e-2,9.607618302e-2,-4.888837226e-3,9.899583862e-2
5.086297708e0,1.331280917e-2,7.471334189e-2,-5.655563436e-3,7.610058963e-2
5.096329708e0,4.417584743e-3,4.418179393e-2,-8.583709598e-3,4.522417539e-2
5.106362708e0,-4.431512498e-4,3.540034872e-3,-1.103136875e-2,1.159393490e-2
5.116395708e0,-2.362757688e-3,-3.693282604e-2,-7.639566436e-3,3.778861255e-2
5.126428708e0,-6.403039675e-3,-7.726772875e-2,-2.018432831e-3,7.755884794e-2
5.136461708e0,-9.269665927e-3,-1.121226475e-1,7.285586558e-3,1.127408291e-1
5.146494708e0,-1.573015936e-2,-1.300053298e-1,1.005138829e-2,1.313387000e-1
5.156527708e0,-1.953288727e-2,-1.348789036e-1,1.122424472e-2,1.367473437e-1
5.166560708e0,-2.474716492e-2,-1.151660830e-1,9.111658670e-3,1.181468204e-1
5.176593708e0,-1.904347166e-2,-8.546970785e-2,9.527377784e-3,8.808232342e-2
5.186626708e0,-1.231378689e-2,-4.404310882e-2,2.886528382e-3,4.582310365e-2
5.196659708e0,-2.205758821e-3,8.573232219e-3,-1.416074811e-3,8.964984692e-3
5.206692708e0,4.785173107e-3,5.931695551e-2,-6.988046225e-3,5.991854373e-2
5.216725708e0,1.458187774e-2,9.912242740e-2,-8.883951232e-3,1.005823611e-1
5.226758708e0,1.809651777e-2,1.218817383e-1,-8.129423484e-3,1.234857466e-1
5.236791708e0,1.923368685e-2,1.303822696e-1,-7.719830144e-3,1.320191907e-1
5.246824708e0,1.889345422e-2,1.229083464e-1,-7.082602009e-3,1.245535526e-1
5.256857708e0,1.398205198e-2,9.617207944e-2,-4.775505513e-3,9.730042187e-2
5.266890708e0,9.941589087e-3,5.652882159e-2,-1.665612450e-3,5.742052881e-2
5.276923708e0,3.875441151e-3,9.599398822e-3,-2.282400848e-3,1.060079504e-2
5.286956708e0,-3.510776907e-3,-3.686952963e-2,1.199307502e-3,3.705571627e-2
5.296989708e0,-8.923119865e-3,-7.651041448e-2,1.007027342e-3,7.703557423e-2
5.307022708e0,-1.505431812e-2,-1.056839228e-1,1.162180444e-3,1.067570826e-1
5.317055708e0,-2.280491590e-2,-1.244871765e-1,2.256739652e-3,1.265788852e-1
5.327088708e0,-2.015407570e-2,-1.194020435e-1,2.535463311e-3,1.211175600e-1
5.337121708e0,-1.854472794e-2,-1.050915495e-1,3.331748303e-3,1.067672293e-1
5.347154708e0,-1.096969284e-2,-7.686254382e-2,2.803648124e-3,7.769198959e-2
5.357187708e0,-6.925948896e-3,-3.955245763e-2,2.163157798e-3,4.021249712e-2
5.367220708e0,3.805716522e-3,-9.370379848e-4,4.404583015e-4,3.944048928e-3
5.377253708e0,5.596958566e-3,3.360415995e-2,-2.612846438e-4,3.406807569e-2
5.387286708e0,8.737169206e-3,5.741826817e-2,-3.385748481e-3,5.817782171e-2
5.397319708e0,1.140911877e-2,7.041689008e-2,-5.034778267e-3,7.151262401e-2
5.407352708e0,1.162369736e-2,7.450149953e-2,-4.516958259e-3,7.553798174e-2
5.417384708e0,9.545366280e-3,6.828887761e-2,-7.467473857e-3,6.935595135e-2
5.427417708e0,7.282864302e-3,5.242915079e-2,-4.587013274e-3,5.313093878e-2
5.437450708e0,4.090799484e-3,3.208792582e-2,-3.148107557e-3,3.250046469e-2
5.447483708e0,1.706019742e-3,5.675356835e-3,-1.118758228e-4,5.927283928e-3
5.457516708e0,-4.512994085e-3,-1.840654388e-2,1.360585913e-3,1.900050440e-2
5.467549708e0,-6.698916666e-3,-3.948359936e-2,1.152060460e-3,4.006441497e-2
5.477582708e0,-7.242201827e-3,-5.289234966e-2,3.631463274e-3,5.350922972e-2
5.487615708e0,-1.039851457e-2,-5.445488170e-2,3.860281315e-3,5.557306018e-2
5.497648708e0,-7.470635232e-3,-5.220637470e-2,1.468496397e-3,5.275862425e-2
5.507681708e0,-6.853585597e-3,-4.120270163e-2,8.114365628e-4,4.177670028e-2
5.517714708e0,-5.784060340e-3,-2.648474276e-2,-8.551613428e-5,2.710911777e-2
5.527747708e0,-1.343234209e-3,-9.175553918e-3,-2.390956506e-3,9.576624711e-3
5.537780708e0,3.899509902e-4,8.108895272e-3,-2.914001700e-3,8.625407249e-3
5.547813708e0,5.837049335e-3,2.240299806e-2,-3.143404145e-3,2.336335714e-2
5.557846708e0,6.516155321e-3,2.832427062e-2,-3.280823119e-3,2.924873308e-2
5.567879708e0,5.196608603e-3,3.117866255e-2,-3.083341522e-3,3.175878988e-2
5.577912708e0,7.068278268e-3,2.706727572e-2,-2.355765784e-3,2.807396668e-2
5.587945708e0,5.166059360e-3,1.509918552e-2,-2.887161681e-3,1.621756070e-2
5.597978708e0,2.321270527e-3,1.570594497e-3,-8.056347724e-4,2.916180948e-3
5.608011708e0,-2.014036756e-3,-1.583397575e-2,3.272052854e-4,1.596490511e-2
5.618044708e0,-5.258299410e-3,-2.645146661e-2,-1.672562212e-3,2.702086717e-2
5.628077708e0,-5.416484550e-3,-3.382711485e-2,-8.096371312e-4,3.426758696e-2
5.638110708e0,-7.756071631e-3,-3.792971373e-2,-8.274803404e-4,3.872343676e-2
5.648143708e0,-4.858869128e-3,-3.521517292e-2,3.215320408e-3,3.569391122e-2
5.658176708e0,-1.398046222e-2,-3.327506036e-2,-2.299764007e-2,4.279689725e-2
5.668209708e0,-2.724257410e-1,-5.621536970e-1,8.102532476e-2,6.299187778e-1
5.678242708e0,-2.632002831e-1,-5.018045902e-1,3.501793146e-1,6.661139453e-1
5.688274708e0,-2.020641565e-1,-9.067056328e-2,9.037663043e-2,2.392049534e-1
5.698307708e0,-1.585952491e-1,-3.161367178e-1,-9.129303694e-2,3.652797503e-1
5.708340708e0,6.887617055e-4,-4.629566371e-1,-2.254530042e-1,5.149353157e-1
5.718373708e0,-3.741654381e-2,-5.278416276e-1,-2.524044812e-1,5.862804821e-1
5.728406708e0,-1.047454029e-1,-5.096605420e-1,-9.550599754e-2,5.290055416e-1
5.738439708e0,-1.559886187e-1,-5.982585549e-1,1.157447249e-1,6.290012632e-1
5.748472708e0,-2.083642036e-1,-6.870713234e-1,2.121811062e-1,7.486677945e-1
5.758505708e0,-2.182008475e-1,-6.444231868e-1,2.027633637e-1,7.099336836e-1
5.768538708e0,-1.674321294e-1,-6.022816896e-1,8.782862872e-2,6.312611343e-1
5.778571708e0,-1.643066555e-1,-6.012321711e-1,-2.186936885e-2,6.236626250e-1
5.788604667e0,-1.575616747e-1,-5.974338651e-1,-8.750873804e-2,6.240277908e-1
5.798637667e0,-1.495279819e-1,-6.104641557e-1,-9.815312922e-2,6.361282414e-1
5.808670667e0,-1.624527127e-1,-5.991098881e-1,-3.960056603e-2,6.220062272e-1
5.818703667e0,-1.805156022e-1,-5.303835273e-1,2.417894453e-2,5.607826584e-1
5.828736667e0,-1.370413303e-1,-4.462272823e-1,4.575969279e-2,4.690341812e-1
5.838769667e0,-6.169598550e-2,-4.026707709e-1,3.603143245e-2,4.089601551e-1
5.848802667e0,-1.175385434e-3,-3.851239681e-1,8.447418921e-3,3.852183942e-1
5.858835667e0,2.105402015e-2,-3.279144764e-1,-3.838959709e-2,3.308246314e-1
5.868868667e0,1.358298492e-2,-2.891866863e-1,-5.962069333e-2,2.955808926e-1
5.878901667e0,-9.580391459e-3,-2.972041368e-1,-3.023190983e-2,2.988913703e-1
5.888934667e0,-3.820272535e-2,-3.300589621e-1,-1.644590171e-3,3.322665667e-1
5.898967667e0,-5.474175513e-2,-3.429172337e-1,1.253195456e-3,3.472613705e-1
5.909000667e0,-6.667377800e-2,-3.307252824e-1,-9.797857143e-3,3.375212632e-1
5.919033667e0,-6.736646593e-2,-3.012813926e-1,-2.848392725e-2,3.100323408e-1
5.929066667e0,-6.585820764e-2,-2.861829400e-1,-3.954032809e-2,2.963130375e-1
5.939099667e0,-6.588137895e-2,-2.703967988e-1,-3.884844109e-2,2.810053136e-1
5.949132667e0,-5.669730157e-2,-2.046542317e-1,-2.596632391e-2,2.139443585e-1
5.959164667e0,3.463101014e-2,5.302017927e-2,-4.390458111e-3,6.348009449e-2
5.969198667e0,1.465592682e-1,2.278304994e-1,2.650651708e-2,2.721928563e-1
5.979230667e0,2.950334251e-1,8.116790093e-3,-8.313050121e-2,3.066289035e-1
5.989263667e0,4.372656047e-1,-4.874633551e-1,-1.131080985e-1,6.645413257e-1
5.999296667e0,3.207603097e-1,-1.117741466e0,-3.246891499e-2,1.163308811e0
6.009329667e0,-1.133769080e-1,-1.903482199e0,1.598542370e-2,1.906922740e0
6.019362667e0,-4.949639738e-1,-2.426497698e0,4.573319852e-2,2.476887551e0
6.029395667e0,-6.197491884e-1,-2.961386204e0,-4.741915315e-2,3.025912405e0
6.039428667e0,-2.497594357e-1,-3.147807360e0,-5.334415287e-2,3.158150811e0
6.049461667e0,4.661072791e-1,-2.683257103e0,1.006605551e-1,2.725299474e0
6.059494667e0,1.085246444e0,-1.471531510e0,1.815849692e-1,1.837426986e0
6.069527667e0,1.413543463e0,2.510037124e-1,6.415588409e-2,1.437088711e0
6.079560667e0,1.491404176e0,1.829573154e0,-9.212958813e-2,2.362226112e0
6.089593667e0,9.096688032e-1,1.924185753e0,-1.853409261e-1,2.136431464e0
6.099626667e0,3.591137528e-1,1.215130568e0,-1.021922380e-1,1.271199527e0
6.109659667e0,7.679833770e-1,1.553068280e0,-6.834227592e-2,1.733923360e0
6.119692667e0,1.306452751e0,2.008776903e0,-2.533994988e-2,2.396381762e0
6.129725667e0,1.642522693e0,2.222309589e0,-1.635408029e-2,2.763477549e0
6.139758667e0,1.919261575e0,2.528071880e0,-3.391256556e-2,3.174249909e0
6.149791667e0,2.110486031e0,3.011445999e0,1.549584419e-1,3.680620927e0
6.159824667e0,2.242892981e0,3.328452349e0,5.974615812e-1,4.057847250e0
6.169857667e0,2.457417250e0,3.447961569e0,1.147552967e0,4.386823034e0
6.179890667e0,2.747729063e0,3.379022598e0,1.532303333e0,4.616899634e0
6.189923667e0,3.123493671e0,3.104739904e0,1.748156071e0,4.738319558e0
6.199956667e0,3.633583784e0,2.964521885e0,2.090233803e0,5.134237867e0
6.209989667e0,4.115693092e0,3.013876200e0,2.556033850e0,5.705759232e0
6.220022667e0,4.533909798e0,3.148915052e0,3.118890762e0,6.340306274e0
6.230054667e0,4.862440109e0,3.292838097e0,3.692723751e0,6.937024957e0
6.240087667e0,5.030248642e0,3.335845232e0,4.044789314e0,7.265781817e0
6.250120667e0,4.736965656e0,3.106953144e0,4.106024742e0,6.996530615e0
6.260153667e0,4.228823185e0,3.231314898e0,4.151840210e0,6.749971750e0
6.270186667e0,3.643224239e0,3.674175262e0,4.358467102e0,6.765270297e0
6.280219667e0,3.144426823e0,4.438361168e0,4.549237728e0,7.090982570e0
6.290252667e0,2.640147686e0,5.736607075e0,4.812453747e0,7.939694679e0
6.300285667e0,2.186414242e0,7.369609833e0,5.269548893e0,9.319855249e0
6.310318667e0,1.747105718e0,8.612736702e0,5.743053913e0,1.049829892e1
6.331718083e0,-5.385687351e-1,-9.695508480e-1,-1.089532226e-1,1.114430767e0
6.341751083e0,-6.154105663e-1,-1.258822560e0,-1.030047834e-1,1.404981989e0
6.351784083e0,-5.399713516e-1,-1.408867598e0,-1.203695610e-1,1.513593670e0
6.361817083e0,-3.852206469e-1,-1.452205777e0,-1.456149966e-1,1.509470203e0
6.371850083e0,-2.185554951e-1,-1.463708162e0,-1.392379105e-1,1.486470748e0
6.381883083e0,-7.996325940e-2,-1.419492245e0,-1.355097592e-1,1.428186000e0
6.391916083e0,3.080948070e-2,-1.306067586e0,-1.472742409e-1,1.314705847e0
6.401949083e0,1.090230569e-1,-1.080601454e0,-1.667872220e-1,1.098819142e0
6.411982083e0,1.530788541e-1,-7.786692381e-1,-1.804579347e-1,8.138328969e-1
6.422015083e0,1.634811610e-1,-4.955613911e-1,-1.878181249e-1,5.546015060e-1
6.432047083e0,1.338806003e-1,-2.485629767e-1,-1.910983920e-1,3.409195858e-1
6.442080083e0,5.366138741e-2,-2.231625840e-2,-1.830031872e-1,1.920097039e-1
6.452113083e0,-5.229280889e-2,1.342254728e-1,-1.601961851e-1,2.154386993e-1
6.462146083e0,-1.504619867e-1,2.141080499e-1,-1.377217621e-1,2.957166722e-1
6.472179083e0,-2.234597355e-1,2.552192211e-1,-1.161875874e-1,3.585675106e-1
6.482212083e0,-2.691723704e-1,2.419260740e-1,-9.551027417e-2,3.743049596e-1
6.492245083e0,-2.764824629e-1,1.842446476e-1,-6.645186990e-2,3.388281179e-1
6.502278083e0,-2.523339689e-1,1.043189317e-1,-2.760939486e-2,2.744397020e-1
6.512311083e0,-2.056364864e-1,6.102257594e-2,1.523427479e-2,2.150400020e-1
6.522344083e0,-1.399935633e-1,9.353443980e-2,5.725735798e-2,1.778350197e-1
6.532377083e0,-6.022059172e-2,1.653635204e-1,9.507907927e-2,2.000291100e-1
6.542410083e0,5.384446308e-2,1.764060557e-1,1.307459921e-1,2.260814834e-1
6.552443083e0,1.590162367e-1,1.565166861e-1,1.717273593e-1,2.815562510e-1
6.562476083e0,2.498076558e-1,1.225488633e-1,1.920510083e-1,3.380912282e-1
6.572509083e0,3.026195168e-1,8.231933415e-2,1.919264793e-1,3.676830404e-1
6.582542083e0,2.903141379e-1,6.744291633e-2,1.753285974e-1,3.457903450e-1
6.592575083e0,2.574416101e-1,1.472627372e-2,1.615409702e-1,3.042836354e-1
6.602608083e0,1.922396868e-1,-4.611151293e-2,1.335197240e-1,2.385579291e-1
6.612641083e0,-3.637362272e-2,4.765156284e-2,8.279026300e-2,1.022151629e-1
6.622673083e0,-1.564739347e-1,-1.844871342e-1,2.059852891e-2,2.427836368e-1
6.632706083e0,-1.364545226e-1,-3.402555883e-1,-3.552471101e-2,3.683146850e-1
6.642739083e0,1.108665136e-3,-3.096225560e-1,-7.136606425e-2,3.177427756e-1
6.652772083e0,1.833475828e-1,-2.694377303e-1,-8.099182695e-2,3.358164717e-1
6.662805083e0,3.427252769e-1,-2.732404768e-1,-9.476169944e-2,4.484425864e-1
6.672838083e0,4.236084223e-1,-2.565438151e-1,-1.060270071e-1,5.064588342e-1
6.682871083e0,3.806878626e-1,-3.117162585e-1,-1.303568482e-1,5.090021439e-1
6.692904083e0,2.930576503e-1,-4.912285209e-1,-1.391800493e-1,5.886929015e-1
6.702937083e0,2.196864784e-1,-6.756763458e-1,-1.324808747e-1,7.227391336e-1
6.712970083e0,1.779754013e-1,-7.922420502e-1,-1.518226415e-1,8.260586081e-1
6.723003083e0,1.559683681e-1,-8.673588634e-1,-1.549009830e-1,8.947803329e-1
6.733036083e0,1.353870779e-1,-9.039562345e-1,-1.505952179e-1,9.263614059e-1
6.743069083e0,8.901292086e-2,-9.191245437e-1,-1.438494325e-1,9.345618685e-1
6.753102083e0,4.808964953e-2,-8.920273185e-1,-1.211825907e-1,9.015046154e-1
6.763135083e0,5.043216795e-2,-7.883171439e-1,-8.486878872e-2,7.944746908e-1
6.773168083e0,1.095427424e-1,-6.256250143e-1,-6.820961833e-2,6.387948207e-1
6.783201083e0,1.969476789e-1,-4.109103084e-1,-8.275260776e-2,4.631238105e-1
6.793234083e0,2.407283783e-1,-2.171642035e-1,-1.060508564e-1,3.411117523e-1
6.803267083e0,2.209802419e-1,-1.011643633e-1,-1.305871010e-1,2.758976018e-1
6.813299083e0,1.479307115e-1,-4.843237996e-2,-1.434348226e-1,2.116665754e-1
6.823332083e0,5.504631251e-2,-7.461071759e-2,-1.410185397e-1,1.687693225e-1
6.833365083e0,-2.399029769e-2,-1.249456629e-1,-1.397406012e-1,1.889825089e-1
6.843398083e0,-6.398777664e-2,-1.606655717e-1,-1.396918595e-1,2.223098673e-1
6.853431083e0,-6.726415455e-2,-1.818801910e-1,-1.464745551e-1,2.430219448e-1
6.863464083e0,-6.061876565e-2,-1.854791790e-1,-1.587480009e-1,2.515513633e-1
6.873497083e0,-6.153019145e-2,-1.868881434e-1,-1.668711454e-1,2.579905459e-1
6.883530083e0,-6.772683561e-2,-1.686225981e-1,-1.633493751e-1,2.443430441e-1
6.893563083e0,-4.559148476e-2,-1.087778658e-1,-1.535605937e-1,1.936286743e-1
6.903596083e0,1.224438287e-2,-1.792226359e-2,-1.397861838e-1,1.414613362e-1
6.913629083e0,7.762944698e-2,6.119525060e-2,-1.187001243e-1,1.544697681e-1
6.923662083e0,1.371154189e-1,9.495986998e-2,-9.512875229e-2,1.920091001e-1
6.933695083e0,1.798625290e-1,8.592014015e-2,-8.770111203e-2,2.177711755e-1
6.943728083e0,1.799101979e-1,4.272552952e-2,-1.029884592e-1,2.116595684e-1
6.953761083e0,1.712561995e-1,-2.227632888e-2,-1.294709146e-1,2.158416976e-1
6.963794083e0,1.788584590e-1,-4.229903594e-2,-1.480480582e-1,2.360037803e-1
6.973827083e0,1.898137480e-1,-5.115811247e-3,-1.563307941e-1,2.459568003e-1
6.983860083e0,1.949645579e-1,2.242952958e-2,-1.711906940e-1,2.604237246e-1
6.993893083e0,1.918676496e-1,2.814381197e-2,-1.823351681e-1,2.661792303e-1
7.003925083e0,1.930130720e-1,4.961368069e-2,-1.892569959e-1,2.748340841e-1
7.013958083e0,2.023441792e-1,1.263559312e-1,-1.946036071e-1,3.078628787e-1
7.023991083e0,2.053495646e-1,2.162288278e-1,-1.952715367e-1,3.564468021e-1
7.034024083e0,2.008617520e-1,2.473325282e-1,-1.836876124e-1,3.677770546e-1
7.044057083e0,1.991584003e-1,2.505483031e-1,-1.768438220e-1,3.656668675e-1
7.054090083e0,1.987508535e-1,2.801699042e-1,-1.677076966e-1,3.822603151e-1
7.064123083e0,2.123172730e-1,3.028262258e-1,-1.541892290e-1,4.006952280e-1
7.074156083e0,2.151477337e-1,2.933464050e-1,-1.542502344e-1,3.951376918e-1
7.084189083e0,2.056623399e-1,2.636787891e-1,-1.552957892e-1,3.687008056e-1
7.094222083e0,1.863849014e-1,2.023606747e-1,-1.560578644e-1,3.162961132e-1
7.104255458e0,1.675704718e-1,1.394067407e-1,-1.685672700e-1,2.755522217e-1
7.114288458e0,1.371139437e-1,1.007172540e-1,-1.802622527e-1,2.478682685e-1
7.124321458e0,1.139617488e-1,6.862669438e-2,-1.617967039e-1,2.094637839e-1
7.134354458e0,1.291557103e-1,4.657776654e-2,-1.189212352e-1,1.816396048e-1
7.144387458e0,1.599871218e-1,5.013655126e-2,-8.512731642e-2,1.880324784e-1
7.154420458e0,1.586294323e-1,7.376918197e-2,-7.000409812e-2,1.884297290e-1
7.164453458e0,1.229460016e-1,5.704053491e-2,-6.263060123e-2,1.493048363e-1
7.174486458e0,7.236418128e-2,1.173391007e-2,-7.195343822e-2,1.027207703e-1
7.184519458e0,3.894044086e-2,-2.368293516e-2,-8.449692279e-2,9.600504838e-2
7.194551458e0,3.622398898e-2,-5.500833318e-2,-7.688305527e-2,1.012378303e-1
7.204584458e0,3.672599420e-2,-1.011215001e-1,-7.401988655e-2,1.305882845e-1
7.214617458e0,1.706162235e-3,-1.454300433e-1,-8.622147143e-2,1.690767596e-1
7.224650458e0,-4.386159033e-2,-1.770769209e-1,-1.083938852e-1,2.122011059e-1
7.234683458e0,-6.431593001e-2,-1.984459162e-1,-1.143465415e-1,2.378916813e-1
7.244716458e0,-6.426985562e-2,-2.000850886e-1,-1.062124446e-1,2.354691921e-1
7.254749458e0,-5.288770422e-2,-1.926299185e-1,-7.153157890e-2,2.121795502e-1
7.264782458e0,-5.349570140e-2,-2.216437310e-1,-3.735470027e-2,2.310478461e-1
7.274815458e0,-6.873711199e-2,-2.721701562e-1,-2.537117340e-2,2.818600379e-1
7.284848458e0,-9.316521883e-2,-3.233433068e-1,-2.988895960e-2,3.378224414e-1
7.294881458e0,-1.081893817e-1,-3.687614501e-1,-3.190359101e-2,3.856264883e-1
7.304914458e0,-1.093526483e-1,-4.119171798e-1,-4.375758767e-2,4.284255959e-1
7.314947458e0,-5.890791863e-2,-4.551934898e-1,-5.654427409e-2,4.624591992e-1
7.324980458e0,4.551356286e-2,-4.229327440e-1,-4.219329730e-2,4.274621208e-1
7.335013458e0,1.615410894e-1,-2.767385244e-1,-5.493792146e-2,3.251121494e-1
7.345046458e0,2.268439233e-1,-1.543396413e-1,-3.620791063e-2,2.767488089e-1
7.355079458e0,2.430120856e-1,-3.414543718e-2,-2.693448775e-2,2.468729455e-1
7.365112458e0,2.104948908e-1,9.527167678e-2,-3.233404830e-2,2.333029835e-1
7.375144458e0,1.270004213e-1,1.826711595e-1,-4.157717898e-2,2.263327668e-1
7.385177458e0,-1.050280333e-1,1.980698258e-1,-4.269490764e-2,2.282222574e-1
7.395210458e0,-2.320926636e-1,7.545562461e-3,-3.224807605e-2,2.344437639e-1
7.405243458e0,-2.811329067e-1,-8.822197467e-2,-4.122905061e-2,2.975208609e-1
7.415276458e0,-2.352472693e-1,-1.495323777e-1,-4.938037321e-2,2.830894398e-1
7.425309458e0,-1.054631621e-1,-1.258819103e-1,-8.194123954e-2,1.835295634e-1
7.435342458e0,9.678950906e-2,1.500279456e-2,-7.982496172e-2,1.263539371e-1
7.445375458e0,2.931284010e-1,2.308197767e-1,-4.524541646e-2,3.758313139e-1
7.455408458e0,3.207671046e-1,4.139803648e-1,-4.462353140e-2,5.256068278e-1
7.465441458e0,1.721281111e-1,3.634154797e-1,-5.717420951e-2,4.061622677e-1
7.475474458e0,-3.141572326e-2,1.228391081e-1,-5.429307371e-2,1.379279957e-1
7.485507458e0,-1.491167843e-1,-5.110792071e-2,-6.258589029e-2,1.696019711e-1
7.495540458e0,-1.601050347e-1,-8.404001594e-2,-8.546399325e-2,2.000011014e-1
7.505573458e0,-1.120237857e-1,-5.328556150e-2,-1.106745377e-1,1.662453997e-1
7.515606458e0,-2.937267162e-2,-5.901924521e-2,-1.176383272e-1,1.348510332e-1
7.525639458e0,6.264486909e-2,-9.994190931e-2,-1.196972132e-1,1.680481708e-1
7.535672458e0,1.467597187e-1,-1.056157500e-1,-1.025040597e-1,2.078465393e-1
7.545705458e0,2.071231902e-1,-8.119536191e-2,-6.597667187e-2,2.320465986e-1
7.555737458e0,2.256473154e-1,-4.524639249e-2,-2.188275009e-2,2.311769922e-1
7.565770458e0,1.770267934e-1,-3.409993369e-3,-1.352708228e-2,1.775756052e-1
7.575803458e0,9.239888191e-2,3.148122132e-2,-2.755519003e-2,1.014293309e-1
7.585836458e0,3.726612031e-2,1.980778389e-2,-4.067738354e-2,5.861536964e-2
7.595869458e0,4.036040977e-2,1.643788815e-2,-5.088740215e-2,6.699772041e-2
7.605902458e0,9.215037525e-2,4.686237127e-2,-3.425196558e-2,1.089080835e-1
7.615935458e0,1.565600485e-1,6.844750047e-2,-2.162959985e-2,1.722322522e-1
7.625968458e0,1.788275391e-1,7.039799541e-2,-1.496424153e-2,1.927669448e-1
7.636001458e0,1.665614098e-1,5.760803446e-2,-1.015340723e-2,1.765346441e-1
7.646034458e0,1.459938139e-1,3.822688013e-2,3.730030730e-4,1.509159607e-1
7.656067458e0,1.251143962e-1,2.363911085e-2,1.437387615e-2,1.281367551e-1
7.666100458e0,1.098036170e-1,5.459840409e-3,1.425587456e-3,1.099485173e-1
7.676133458e0,8.829570562e-2,6.941989064e-2,-1.871062629e-2,1.138654486e-1
7.686166458e0,1.074198633e-1,1.392149627e-1,-2.048908547e-2,1.770300413e-1
7.696199458e0,1.319918334e-1,1.737433076e-1,-2.677150257e-2,2.198301489e-1
7.706232458e0,1.334376633e-1,1.945897341e-1,-4.556729645e-2,2.403063734e-1
7.716265458e0,1.214282289e-1,2.093342394e-1,-6.628250331e-2,2.509163382e-1
7.726298458e0,1.009375975e-1,2.121851593e-1,-6.792514026e-2,2.445910160e-1
7.736330458e0,8.993121982e-2,2.082442641e-1,-5.915061012e-2,2.344186266e-1
7.746363458e0,9.169156849e-2,2.031171471e-1,-4.648141935e-2,2.276498221e-1
7.756396458e0,8.179106563e-2,1.938074827e-1,-3.332801908e-2,2.129832755e-1
7.766429458e0,5.809133127e-2,1.582300514e-1,-1.658525690e-2,1.693706665e-1
7.776462458e0,2.742739581e-2,1.086231023e-1,3.824291751e-3,1.120975718e-1
7.786495458e0,7.610225677e-2,1.162181720e-1,-1.028087456e-2,1.392979303e-1
7.796528458e0,1.207338870e-1,2.454621941e-1,1.985372789e-2,2.742672614e-1
7.806561458e0,1.359770298e-1,2.467540950e-1,2.969410829e-2,2.833003284e-1
7.816594458e0,1.265369505e-1,2.640585005e-1,3.248101845e-2,2.946073796e-1
7.826627458e0,1.050598919e-1,3.052229583e-1,2.593071014e-2,3.238379794e-1
7.836660458e0,8.019890636e-2,3.492435515e-1,2.617116272e-2,3.592879800e-1
7.846693458e0,5.448901281e-2,3.732540607e-1,3.595321998e-2,3.789198865e-1
7.856726458e0,2.288419195e-2,4.060280323e-1,4.296119139e-2,4.089353411e-1
7.866759458e0,-7.383964490e-3,4.023059905e-1,5.270409957e-2,4.058107379e-1
7.876792458e0,-2.731006593e-2,3.887502849e-1,3.816185892e-2,3.915724086e-1
7.886825458e0,1.283176150e-2,3.029474914e-1,2.541543543e-2,3.042824034e-1
7.896858458e0,7.124293596e-2,3.139942288e-1,8.669795468e-3,3.220917525e-1
7.906891458e0,9.245767444e-2,3.605867624e-1,1.928169280e-2,3.727506116e-1
7.916923458e0,2.889150754e-2,3.998792768e-1,2.551682293e-2,4.017328259e-1
7.926956458e0,-1.012246832e-1,3.260039985e-1,4.214267433e-2,3.439491947e-1
7.936989458e0,-1.716321558e-1,1.560872793e-1,4.404472932e-2,2.361371928e-1
7.947022458e0,-1.365468800e-1,6.941044331e-2,3.342217952e-2,1.567797888e-1
7.957055458e0,-1.618203521e-2,2.409961075e-2,2.462214977e-2,3.806441594e-2
7.967088458e0,1.417181194e-1,2.750379965e-3,1.046158932e-2,1.421303444e-1
7.977121458e0,2.517138422e-1,-4.670551978e-3,-3.696085652e-3,2.517842994e-1
7.987154458e0,2.295907140e-1,-6.739758700e-2,-2.669833973e-2,2.407636435e-1
7.997187458e0,1.012855917e-1,-2.322380096e-1,-3.004745767e-2,2.551394009e-1
8.007220458e0,-5.120754987e-2,-4.076876044e-1,-4.787172750e-2,4.136702772e-1