"Time (s)","Gyroscope x (rad/s)","Gyroscope y (rad/s)","Gyroscope z (rad/s)","Absolute (rad/s)"
1.033770833e-2,-9.449443817e-1,-3.785609007e-1,7.684309781e-2,1.020849206e0
2.037070833e-2,-1.186678410e0,-1.381698698e-1,-3.288153559e-2,1.195147588e0
3.040370833e-2,-1.376970768e0,-3.365912735e-1,-1.898008734e-1,1.430163121e0
4.043670833e-2,-1.473849654e0,-4.812123477e-1,-3.125571311e-1,1.581609967e0
5.046970833e-2,-1.464068413e0,-4.611079097e-1,-3.129464388e-1,1.566541508e0
6.050270833e-2,-1.434881210e0,-6.050632000e-1,-3.517356515e-1,1.596465951e0
7.053570833e-2,-1.449539781e0,-8.339825273e-1,-3.749878407e-1,1.713857728e0
8.056970833e-2,-1.577126741e0,-1.145962477e0,-1.991577148e-1,1.959648579e0
9.060270833e-2,-1.568807721e0,-1.303468108e0,-9.189397842e-2,2.041722625e0
1.006357083e-1,-1.368445039e0,-1.318965554e0,-2.755999565e-2,1.900808120e0
1.106687083e-1,-1.091054201e0,-1.196646094e0,1.139533520e-1,1.623375037e0
1.207017083e-1,-8.071934581e-1,-1.115836501e0,3.527001441e-1,1.421636299e0
1.307347083e-1,-5.745272040e-1,-1.116452694e0,6.317108274e-1,1.405562768e0
1.407677083e-1,-3.444681764e-1,-1.047543406e0,8.070650697e-1,1.366513644e0
1.508007083e-1,-1.424822062e-1,-8.488468528e-1,8.899002075e-1,1.238048682e0
1.608337083e-1,-9.291400202e-3,-6.322527528e-1,9.174170494e-1,1.114218971e0
1.708667083e-1,2.642532066e-2,-4.382131100e-1,8.987503052e-1,1.000240540e0
1.809007083e-1,-2.480191365e-2,-2.310447246e-1,8.190922141e-1,8.514157944e-1
1.909337083e-1,-1.538992673e-1,-5.321010947e-2,6.674260497e-1,6.870035168e-1
2.009667083e-1,-3.516072929e-1,3.068079799e-2,4.369489253e-1,5.616879588e-1
2.109997083e-1,-6.011546254e-1,6.964913756e-2,1.453765631e-1,6.223923450e-1
2.210327083e-1,-8.448218703e-1,1.308059841e-1,-1.771777868e-1,8.730556490e-1
2.310657083e-1,-1.026905417e0,2.492740601e-1,-4.697115421e-1,1.156417410e0
2.410987083e-1,-1.154843211e0,4.756754935e-1,-7.030116320e-1,1.433232491e0
2.511317083e-1,-1.205705881e0,6.644704938e-1,-8.467257619e-1,1.616227776e0
2.611647083e-1,-1.179973602e0,7.082024813e-1,-8.566702604e-1,1.621040527e0
2.711977083e-1,-1.105443358e0,6.602701545e-1,-7.432842255e-1,1.486752547e0
2.812317083e-1,-9.913004637e-1,6.115548015e-1,-5.442920327e-1,1.285663137e0
2.912647083e-1,-8.898062110e-1,2.722837925e-1,-3.312718868e-1,9.877421829e-1
3.012977083e-1,-8.609271646e-1,-8.274416327e-1,-1.859778017e-1,1.208487890e0
3.113307083e-1,-6.825599074e-1,-9.621019959e-1,-8.902788162e-2,1.182985309e0
3.213637083e-1,-5.559290051e-1,-7.785921097e-1,-7.788814604e-2,9.598589976e-1
3.313967083e-1,-5.167784095e-1,-4.710615575e-1,-1.077262163e-1,7.075053732e-1
3.414297083e-1,-4.633561969e-1,-1.368611902e-1,-1.274378747e-1,4.996702537e-1
3.514627083e-1,-3.470670283e-1,5.757308751e-2,-1.560643762e-1,3.848717605e-1
3.614957083e-1,-1.628314108e-1,5.875286832e-2,-1.858835220e-1,2.540052197e-1
3.715287083e-1,6.496755034e-2,-3.207581118e-2,-2.006934583e-1,2.133717518e-1
3.815627083e-1,2.733641565e-1,1.671560705e-1,-1.979083270e-1,3.766122938e-1
3.915957083e-1,4.215699136e-1,4.409864247e-1,-9.693818539e-2,6.177274728e-1
4.016287083e-1,5.640151501e-1,5.214360356e-1,-5.485766567e-3,7.681397805e-1
4.116617083e-1,6.696734428e-1,3.976445496e-1,-1.252246648e-2,7.789355044e-1
4.216947083e-1,6.783963442e-1,2.632372081e-1,-9.648873657e-2,7.340473444e-1
4.317277083e-1,5.810946226e-1,1.817713380e-1,-1.977696717e-1,6.401754625e-1
4.417607083e-1,4.006982744e-1,4.690033384e-3,-1.535353661e-1,4.291319286e-1
4.517937083e-1,2.164430171e-1,-5.404083803e-2,-2.682130598e-2,2.246939570e-1
4.618267083e-1,-1.317020413e-2,-3.239786252e-2,7.817222178e-2,8.563861297e-2
4.718597083e-1,-3.025334775e-1,-5.822817236e-2,1.558042318e-1,3.452419206e-1
4.818927083e-1,-4.313401878e-1,-2.027983963e-1,2.093465477e-1,5.205838301e-1
4.919267083e-1,-3.893884122e-1,-3.964016140e-1,2.456107885e-1,6.075213861e-1
5.019597083e-1,-2.219751626e-1,-4.491172731e-1,2.262535989e-1,5.496999080e-1
5.119927083e-1,3.736399859e-2,-3.979862928e-1,1.221975163e-1,4.179968788e-1
5.220257083e-1,3.617117107e-1,-4.779921770e-1,-3.227834404e-2,6.002947396e-1
5.320587083e-1,7.079933882e-1,-7.645820975e-1,-1.705254167e-1,1.055897409e0
5.420917083e-1,1.028491020e0,-1.112975359e0,-2.633900940e-1,1.538142474e0
5.521247083e-1,1.240929604e0,-1.411728859e0,-3.423371315e-1,1.910518088e0
5.621577083e-1,1.353667855e0,-1.401973367e0,-4.077768624e-1,1.991036904e0
5.721907083e-1,1.297694683e0,-1.314064503e0,-4.932145178e-1,1.911553705e0
5.822237083e-1,1.101548553e0,-1.280566931e0,-5.314577818e-1,1.770793114e0
5.922577083e-1,8.117718101e-1,-1.148268104e0,-5.118861794e-1,1.496502780e0
6.022907083e-1,4.232741594e-1,-8.887659907e-1,-4.905784428e-1,1.099878725e0
6.123237083e-1,-2.827448957e-2,-6.408782601e-1,-5.397394896e-1,8.383573866e-1
6.223567083e-1,-4.786669612e-1,-3.747592568e-1,-6.335182190e-1,8.780158849e-1
6.323897083e-1,-8.788201213e-1,-2.090386301e-1,-7.007824779e-1,1.143292629e0
6.424227083e-1,-1.210970163e0,-1.155709922e-1,-6.878451109e-1,1.397474968e0
6.524557083e-1,-1.417363286e0,1.124590188e-1,-6.157758832e-1,1.549433979e0
6.624887083e-1,-1.492045522e0,2.864473462e-1,-4.975426495e-1,1.598687152e0
6.725217083e-1,-1.448108554e0,3.669760823e-1,-3.249951601e-1,1.528826898e0
6.825547083e-1,-1.277778387e0,4.243922532e-1,-1.333357096e-1,1.352998449e0
6.925887083e-1,-1.018908262e0,5.664432645e-1,5.088581145e-2,1.166885335e0
7.026217083e-1,-7.198644280e-1,7.344072461e-1,2.068506330e-1,1.048973776e0
7.126547083e-1,-4.225340784e-1,8.290206790e-1,3.318721056e-1,9.879015275e-1
7.226877083e-1,-1.651739329e-1,8.616252542e-1,4.023635685e-1,9.651823393e-1
7.327207083e-1,4.183384776e-2,8.439920545e-1,4.015880525e-1,9.355990716e-1
7.427537083e-1,2.057135850e-1,8.157103062e-1,3.367712498e-1,9.061546542e-1
7.527867083e-1,3.264841437e-1,8.021815419e-1,2.289485931e-1,8.958262000e-1
7.628197083e-1,4.006707370e-1,8.405118585e-1,1.275404692e-1,9.398211505e-1
7.728527083e-1,4.097260237e-1,8.734685183e-1,8.470751345e-2,9.685029838e-1
7.828857083e-1,3.634924889e-1,7.931688428e-1,8.473334461e-2,8.765975943e-1
7.929187083e-1,2.925921977e-1,6.423243880e-1,1.044555679e-1,7.135136854e-1
8.029527083e-1,1.883624792e-1,4.746405184e-1,9.619843215e-2,5.196327392e-1
8.129857083e-1,3.938382119e-2,3.247217834e-1,4.171106592e-2,3.297501099e-1
8.230187083e-1,-1.601556540e-1,3.051845729e-1,-2.943474986e-2,3.459101929e-1
8.330517083e-1,-4.037477970e-1,4.079772532e-1,-7.524918765e-2,5.788956408e-1
8.430847083e-1,-6.780765057e-1,5.695398450e-1,-1.005223244e-1,8.912172127e-1
8.531177083e-1,-9.579952955e-1,7.249916792e-1,-8.730647713e-2,1.204570605e0
8.631507083e-1,-1.201020718e0,9.095618129e-1,-1.122589223e-3,1.506570515e0
8.731837083e-1,-1.374427676e0,1.063403964e0,1.214435473e-1,1.742018359e0
8.832167083e-1,-1.474480748e0,1.140336514e0,2.128160745e-1,1.876100083e0
8.932497083e-1,-1.492771983e0,1.114119768e0,2.752549350e-1,1.882922285e0
9.032837083e-1,-1.431518793e0,8.343354464e-1,2.873022556e-1,1.681637380e0
9.133167083e-1,-1.298585176e0,3.870549202e-1,2.211409360e-1,1.372966964e0
9.233497083e-1,-1.115226746e0,-7.869331539e-2,7.917686552e-2,1.120799852e0
9.333827083e-1,-8.874952793e-1,-3.920356333e-1,-9.625522792e-2,9.749896807e-1
9.434157083e-1,-6.427020431e-1,-5.109961629e-1,-1.757561713e-1,8.396863857e-1
9.534487083e-1,-4.164786935e-1,-4.537977278e-1,-1.340145469e-1,6.303544865e-1
9.634817083e-1,-2.072903216e-1,-3.116853237e-1,-4.383084550e-2,3.768795052e-1
9.735147083e-1,-6.297906395e-3,-2.027260512e-1,2.842216939e-2,2.048056034e-1
9.835478333e-1,1.690510213e-1,-1.358767152e-1,4.317688197e-2,2.211446872e-1
9.935808333e-1,2.878877521e-1,-7.011251897e-2,2.672073431e-2,2.975048247e-1
1.003614833e0,3.411826491e-1,-7.882558554e-2,4.818364047e-3,3.502032119e-1
1.013647833e0,3.348473608e-1,-2.501325309e-1,-1.308890292e-3,4.179602269e-1
1.023680833e0,2.867860794e-1,-4.592330158e-1,1.778837107e-2,5.417173103e-1
1.033713833e0,2.284480184e-1,-5.448367000e-1,3.994016349e-2,5.921408138e-1
1.043746833e0,1.797103137e-1,-5.278095007e-1,5.003434420e-2,5.598054139e-1
1.053779833e0,1.426917464e-1,-4.357489944e-1,5.523551628e-2,4.618323103e-1
1.063812833e0,1.124952286e-1,-3.048170805e-1,7.364755124e-2,3.331555055e-1
1.073845833e0,1.061641872e-1,-2.098743916e-1,1.074283049e-1,2.585709488e-1
1.083878833e0,1.275523007e-1,-1.741126776e-1,1.358109415e-1,2.550086777e-1
1.093911833e0,1.794241071e-1,-2.065565288e-1,1.593329161e-1,3.166158366e-1
1.103944833e0,2.382077873e-1,-2.247254103e-1,1.752852499e-1,3.714422954e-1
1.113978833e0,2.973670065e-1,-1.595404148e-1,2.054912895e-1,3.951037213e-1
1.124011833e0,3.493604064e-1,4.814714193e-3,2.419465035e-1,4.249870417e-1
1.134044833e0,4.077317715e-1,2.248853296e-1,2.889336646e-1,5.479975104e-1
1.144077833e0,4.498134255e-1,4.045480490e-1,3.173349500e-1,6.831491142e-1
1.154110833e0,4.959761202e-1,4.746103585e-1,3.060979843e-1,7.516270885e-1
1.164143833e0,5.421375036e-1,3.586366177e-1,1.599887311e-1,6.694248953e-1
1.174176833e0,5.960911512e-1,1.594027728e-1,-7.175029814e-2,6.211940195e-1
1.184209833e0,6.335021853e-1,-5.045777559e-2,-2.718295753e-1,6.912035329e-1
1.194242833e0,6.563007832e-1,-2.221525759e-1,-3.661261797e-1,7.836650205e-1
1.204275833e0,6.548399925e-1,-3.199211955e-1,-3.514175415e-1,8.091101752e-1
1.214308833e0,6.232178807e-1,-3.769744933e-1,-2.926690876e-1,7.849620948e-1
1.224342833e0,5.585094690e-1,-3.288594186e-1,-1.731999516e-1,6.708796967e-1
1.234375833e0,4.594925940e-1,-1.427693367e-1,-3.876589239e-2,4.827207494e-1
1.244408833e0,3.446499109e-1,3.541585431e-2,3.459327668e-2,3.481875050e-1
1.254441833e0,2.272278517e-1,1.036664471e-1,9.233267047e-3,2.499289541e-1
1.264474833e0,1.246753782e-1,1.122487560e-1,-4.959356412e-2,1.749378597e-1
1.274507833e0,2.954069525e-2,1.002469063e-1,-8.011688292e-2,1.316845087e-1
1.284540833e0,-6.534027308e-2,5.941852182e-2,-7.273193449e-2,1.144108663e-1
1.294573833e0,-1.649396569e-1,-1.738606952e-2,-4.888986796e-2,1.729091814e-1
1.304606833e0,-2.740302086e-1,-7.723821700e-2,-2.294987999e-2,2.856308708e-1
1.314639833e0,-4.006807208e-1,-6.962548196e-2,1.645945944e-2,4.070180114e-1
1.324672833e0,-5.539637208e-1,-6.384615600e-2,8.909823745e-2,5.647040212e-1
1.334706833e0,-7.119185925e-1,-1.006125137e-1,1.699143797e-1,7.387975749e-1
1.344739833e0,-8.362525105e-1,-1.285000741e-1,2.298195362e-1,8.767254700e-1
1.354772833e0,-9.042961001e-1,-1.509752423e-1,2.521380782e-1,9.508514979e-1
1.364805833e0,-8.992925286e-1,-1.596020162e-1,2.362480760e-1,9.434050079e-1
1.374838833e0,-8.348420262e-1,-1.497742534e-1,1.304652095e-1,8.581460870e-1
1.384871833e0,-6.927839518e-1,-8.417019248e-2,-1.109458320e-2,6.979665571e-1
1.394904833e0,-4.972759783e-1,-2.524882369e-2,-1.191487089e-1,5.119739413e-1
1.404937833e0,-2.706183195e-1,4.068784788e-2,-1.614841670e-1,3.177529103e-1
1.414970833e0,-3.646770492e-2,1.163030267e-1,-1.769548208e-1,2.148704170e-1
1.425003833e0,1.836185753e-1,1.359369159e-1,-1.809357107e-1,2.914315661e-1
1.435037833e0,3.739833832e-1,8.630163223e-2,-1.459396780e-1,4.106213977e-1
1.445070833e0,5.337437987e-1,-3.159278631e-2,-7.578377426e-2,5.400219693e-1
1.455103833e0,6.502384543e-1,-1.900169104e-1,1.660829782e-2,6.776372992e-1
1.465136833e0,6.946147084e-1,-2.854267955e-1,1.424892694e-1,7.643698324e-1
1.475169833e0,6.684871912e-1,-1.416035742e-1,2.524126470e-1,7.284496149e-1
1.485202833e0,5.786625147e-1,1.100753434e-2,2.906892002e-1,6.476663360e-1
1.495235833e0,4.366021156e-1,1.578054763e-2,2.361650467e-1,4.966330258e-1
1.505268833e0,2.804428637e-1,-6.071955711e-2,1.398915052e-1,3.192251520e-1
1.515301833e0,1.293677837e-1,-8.660689741e-2,6.848347932e-2,1.700787026e-1
1.525334833e0,-6.848382298e-3,-1.659123749e-1,3.413163126e-2,1.695251743e-1
1.535367833e0,-1.302788854e-1,-2.263378203e-1,2.263411321e-2,2.621329814e-1
1.545401833e0,-2.269937098e-1,-2.541438937e-1,3.470538650e-3,3.407745701e-1
1.555434833e0,-2.772475481e-1,-2.900783122e-1,-3.332420485e-3,4.012763825e-1
1.565467833e0,-2.783138752e-1,-2.881914377e-1,-3.291736357e-4,4.006407696e-1
1.575500833e0,-2.450418621e-1,-2.721130550e-1,2.751012333e-3,3.661947528e-1
1.585533833e0,-1.837947518e-1,-2.021116167e-1,-2.191678248e-2,2.740619670e-1
1.595566833e0,-1.104654074e-1,8.229107596e-3,-5.843990669e-2,1.252419544e-1
1.605599833e0,-3.913104162e-2,2.055427134e-1,-1.005364954e-1,2.321349443e-1
1.615632833e0,1.817645505e-2,3.348900676e-1,-1.462756544e-1,3.658938479e-1
1.625665833e0,6.591974199e-2,3.431120217e-1,-1.676472574e-1,3.875266117e-1
1.635698833e0,1.136181056e-1,2.218551636e-1,-1.541806608e-1,2.930878089e-1
1.645731833e0,1.571693122e-1,6.795056909e-2,-1.213361695e-1,2.098617130e-1
1.655765833e0,1.935890317e-1,-3.604222089e-2,-8.834844828e-2,2.158267898e-1
1.665798833e0,2.218379825e-1,-3.923801333e-2,-8.709489554e-2,2.415310187e-1
1.675831833e0,2.142173350e-1,2.037590183e-2,-9.938404709e-2,2.370262281e-1
1.685864833e0,1.720664203e-1,1.048489735e-1,-1.114780009e-1,2.302770178e-1
1.695897833e0,9.422798455e-2,1.934119165e-1,-1.236724928e-1,2.481571437e-1
1.705930833e0,-1.309180818e-2,2.790674567e-1,-1.464859247e-1,3.154491512e-1
1.715963833e0,-1.630152613e-1,3.697957397e-1,-2.427117974e-1,4.714147654e-1
1.725996833e0,-3.188088536e-1,3.052042425e-1,-3.257219791e-1,5.485285065e-1
1.736029833e0,-4.644952118e-1,1.829668730e-1,-3.080971837e-1,5.866485771e-1
1.746062833e0,-5.601552129e-1,7.735256851e-2,-2.028714418e-1,6.007612706e-1
1.756095833e0,-6.090971828e-1,-7.028306276e-2,-8.165773004e-2,6.185524002e-1
1.766129833e0,-6.125441194e-1,-1.854930073e-1,-1.091431547e-2,6.401070818e-1
1.776162833e0,-5.819333792e-1,-1.832536012e-1,-1.089375094e-2,6.102024369e-1
1.786195833e0,-5.282065272e-1,-1.378211379e-1,-5.406998470e-2,5.485620883e-1
1.796228833e0,-4.489693344e-1,-1.841936558e-1,-1.225324497e-1,5.005147024e-1
1.806261833e0,-3.329668343e-1,-2.784194946e-1,-1.939294040e-1,4.753871490e-1
1.816294833e0,-1.989616305e-1,-3.840123713e-1,-2.489980906e-1,4.990503791e-1
1.826327833e0,-5.848521367e-2,-5.070120096e-1,-2.413052768e-1,5.645440060e-1
1.836360833e0,4.889104515e-2,-6.153153777e-1,-1.755189747e-1,6.417244415e-1
1.846393833e0,1.137139797e-1,-6.353710890e-1,-4.185332358e-2,6.468222249e-1
1.856426833e0,1.179043800e-1,-4.932960570e-1,1.115715951e-1,5.193174978e-1
1.866459833e0,5.260393769e-2,-1.694825739e-1,2.328469008e-1,2.927613300e-1
1.876493833e0,-6.750037521e-2,1.812245399e-1,3.051064312e-1,3.612320153e-1
1.886526833e0,-2.581603229e-1,3.777120411e-1,3.462799489e-1,5.737795233e-1
1.896559833e0,-5.079896450e-1,3.410622180e-1,3.858038783e-1,7.233405481e-1
1.906592833e0,-7.979615927e-1,8.405653387e-2,4.790198505e-1,9.344882136e-1
1.916625833e0,-1.096137643e0,-2.601327002e-1,6.402435899e-1,1.295800374e0
1.926658833e0,-1.374955416e0,-5.238263607e-1,8.307030201e-1,1.689663860e0
1.936691833e0,-1.625088930e0,-6.435481310e-1,1.020708203e0,2.024083364e0
1.946724833e0,-1.836241961e0,-6.322648525e-1,1.173736930e0,2.269185264e0
1.956757833e0,-2.024722099e0,-5.239254236e-1,1.225766897e0,2.424149730e0
1.966790833e0,-2.191994667e0,-4.195361733e-1,1.162872314e0,2.516569737e0
1.976823833e0,-2.327276468e0,-4.338133037e-1,1.017347813e0,2.576704545e0
1.986856208e0,-2.417536736e0,-5.660323501e-1,8.387048244e-1,2.620744602e0
1.996890208e0,-2.425613403e0,-7.511631250e-1,6.584656835e-1,2.623246744e0
2.006923208e0,-2.317936659e0,-9.178496003e-1,5.383570790e-1,2.550511044e0
2.016956208e0,-2.058701277e0,-8.438746333e-1,4.748049974e-1,2.275041786e0
2.026989208e0,-1.680924535e0,-3.953279853e-1,3.955991268e-1,1.771521994e0
2.037022208e0,-1.267324567e0,2.800855339e-1,2.665169835e-1,1.324987082e0
2.047055208e0,-9.061559439e-1,9.266245961e-1,1.227632910e-1,1.301853510e0
2.057088208e0,-6.615903378e-1,1.312996268e0,1.905043982e-2,1.470382227e0
2.067121208e0,-5.483234525e-1,1.336852908e0,-3.178477660e-2,1.445283563e0
2.077154208e0,-5.043286085e-1,1.072185636e0,-3.876994550e-2,1.185509380e0
2.087187208e0,-4.237336814e-1,7.972114086e-1,2.626151964e-2,9.032086859e-1
2.097220208e0,-2.500946820e-1,7.351306677e-1,1.546120048e-1,7.917507945e-1
2.107254208e0,2.256001718e-2,9.336341619e-1,2.319645882e-1,9.622833641e-1
2.117287208e0,3.764874637e-1,1.225671172e0,2.264669389e-1,1.302036830e0
2.127320208e0,7.688230276e-1,1.395813584e0,1.417696327e-1,1.599838441e0
2.137353208e0,1.147498131e0,1.292374253e0,-1.143884286e-2,1.728326942e0
2.147386208e0,1.498016000e0,9.216979146e-1,-1.772501767e-1,1.767765993e0
2.157419208e0,1.855945230e0,4.588264227e-1,-2.996614575e-1,1.935161846e0
2.167452208e0,2.273120165e0,-2.042167634e-2,-3.845523596e-1,2.305509238e0
2.177485208e0,2.809409380e0,-3.700072467e-1,-3.942660689e-1,2.860966997e0
2.187518208e0,3.481590509e0,-4.426180720e-1,-3.451392651e-1,3.526542832e0
2.197551208e0,4.280829430e0,-2.171867341e-1,-3.290660679e-1,4.298948146e0
2.207584208e0,5.157658577e0,5.287991092e-2,-3.504579067e-1,5.169821953e0
2.217618208e0,6.059766769e0,1.475340687e-2,-3.380042017e-1,6.069204050e0
2.227651208e0,6.972489357e0,-4.327647090e-1,-2.166268975e-1,6.989264649e0
2.237684208e0,7.952094078e0,-1.218912005e0,-6.534042768e-5,8.044970274e0
2.247717208e0,9.123877525e0,-2.133147001e0,3.174138367e-1,9.375297796e0
2.257750208e0,1.058011055e1,-2.638248444e0,6.056586504e-1,1.092089358e1
2.267783208e0,1.225595665e1,-2.626913548e0,7.473710775e-1,1.255658041e1
2.277816208e0,1.408035755e1,-2.207651377e0,8.731201291e-1,1.427909423e1
2.287849208e0,1.595158005e1,-1.695442319e0,1.000078917e0,1.607257255e1
2.297882208e0,1.801219940e1,-9.319953918e-1,3.541306257e-1,1.803977137e1
2.307915208e0,1.965695190e1,-2.556530714e0,-2.017248869e-1,1.982352896e1
2.317948208e0,2.087194252e1,-4.515357018e0,-6.451649666e-1,2.136451898e1
2.327981208e0,2.111916161e1,-5.241094112e0,-1.172353148e0,2.179133925e1
2.338015208e0,2.102940941e1,-5.519933224e0,-1.775404930e0,2.181416479e1
2.348048208e0,2.089725876e1,-5.913956642e0,-2.415771961e0,2.185191664e1
2.358081208e0,2.071611404e1,-6.441483974e0,-3.106606245e0,2.191577284e1
2.368114208e0,2.046787262e1,-7.096223831e0,-3.860369205e0,2.200437803e1
2.378147208e0,2.011732101e1,-7.879539490e0,-4.690093040e0,2.210861190e1
2.388180208e0,1.966299629e1,-8.806141853e0,-5.599636555e0,2.226067131e1
2.398213208e0,1.906078911e1,-9.876209259e0,-6.600705147e0,2.245935215e1
2.408246208e0,1.828461075e1,-1.108918953e1,-7.690319538e0,2.272527512e1
2.418279208e0,1.728498840e1,-1.244436073e1,-8.863142967e0,2.306920548e1
2.428312208e0,1.600917816e1,-1.390489006e1,-1.010198212e1,2.348807774e1
2.438345208e0,1.440899563e1,-1.542992783e1,-1.137100983e1,2.397919290e1
2.448379208e0,1.243618774e1,-1.694507790e1,-1.262228298e1,2.451767644e1
2.458412208e0,1.007131386e1,-1.834453773e1,-1.377570629e1,2.505441102e1
2.468445208e0,7.326109886e0,-1.951184082e1,-1.474520683e1,2.553047087e1
2.478478208e0,4.270635128e0,-2.033110809e1,-1.544470215e1,2.588689060e1
2.488511208e0,1.016118169e0,-2.070995331e1,-1.579230881e1,2.606399201e1
2.498544208e0,-2.294250250e0,-2.059832001e1,-1.576077652e1,2.603759681e1
2.508577208e0,-5.499882698e0,-2.000966835e1,-1.534296036e1,2.580778894e1
2.518610208e0,-8.460923195e0,-1.900071335e1,-1.459231758e1,2.540767721e1
2.528643208e0,-1.108231926e1,-1.767193985e1,-1.358522129e1,2.489324197e1
2.538676208e0,-1.331169033e1,-1.615234947e1,-1.241558075e1,2.433610771e1
2.548709208e0,-1.514570141e1,-1.454017448e1,-1.116493607e1,2.377950257e1
2.558742208e0,-1.661116600e1,-1.293271828e1,-9.903077126e0,2.326493014e1
2.568776208e0,-1.774858093e1,-1.139538670e1,-8.686193466e0,2.281045637e1
2.578809208e0,-1.862421417e1,-9.970252037e0,-7.550903320e0,2.243397914e1
2.588842208e0,-1.928006363e1,-8.683870316e0,-6.503863811e0,2.212308075e1
2.598875208e0,-1.976909065e1,-7.541164398e0,-5.562005520e0,2.187743155e1
2.608908208e0,-2.012719154e1,-6.551636219e0,-4.720102310e0,2.168656594e1
2.618941208e0,-2.038589859e1,-5.692991734e0,-3.970034599e0,2.153499921e1
2.628974208e0,-2.057052994e1,-4.964278698e0,-3.301898956e0,2.141712636e1
2.639007208e0,-2.069645691e1,-4.352252483e0,-2.707972765e0,2.132178573e1
2.649040208e0,-2.077847290e1,-3.854746580e0,-2.173708677e0,2.124450556e1
2.659073208e0,-2.083759117e1,-3.449478149e0,-1.694363117e0,2.118902951e1
2.669106208e0,-2.087012482e1,-3.135983229e0,-1.251962543e0,2.114152102e1
2.679140208e0,-2.088408661e1,-2.905673504e0,-8.415324688e-1,2.110204229e1
2.689173208e0,-2.088833046e1,-2.750019312e0,-4.571208358e-1,2.107353589e1
2.699206208e0,-2.088226509e1,-2.669970989e0,-8.295619488e-2,2.105242556e1
2.709239208e0,-2.086376190e1,-2.659358501e0,2.870490253e-1,2.103452271e1
2.719272208e0,-2.083569527e1,-2.715715170e0,6.593566537e-1,2.102227527e1
2.729305208e0,-2.079024124e1,-2.840635061e0,1.038781404e0,2.100910291e1
2.739338208e0,-2.073307037e1,-3.039974928e0,1.440270185e0,2.100419084e1
2.749371208e0,-2.065699387e1,-3.311424732e0,1.863629937e0,2.100357222e1
2.759404208e0,-2.054804611e1,-3.669846058e0,2.320432186e0,2.100177075e1
2.769437208e0,-2.041281128e1,-4.117698193e0,2.828187943e0,2.101516000e1
2.779470208e0,-2.024673653e1,-4.669919491e0,3.386988163e0,2.105255749e1
2.789504208e0,-2.003379059e1,-5.332199574e0,4.011043549e0,2.111571898e1
2.799537208e0,-1.976633453e1,-6.114208221e0,4.709644318e0,2.121961999e1
2.809570208e0,-1.941288757e1,-7.025426865e0,5.494217873e0,2.136359653e1
2.819603208e0,-1.895770454e1,-8.071288109e0,6.367187023e0,2.156574422e1
2.829636208e0,-1.835777092e1,-9.252282143e0,7.333889484e0,2.182655293e1
2.839669208e0,-1.757798195e1,-1.055728722e1,8.391378403e0,2.215529269e1
2.849702208e0,-1.656821251e1,-1.196390533e1,9.524495125e0,2.254676704e1
2.859735208e0,-1.528453350e1,-1.342751122e1,1.070355701e1,2.298871798e1
2.869768208e0,-1.366961288e1,-1.490748787e1,1.189666939e1,2.346534154e1
2.879801208e0,-1.169854069e1,-1.631539536e1,1.303466988e1,2.393638650e1
2.889834208e0,-9.372094154e0,-1.757452965e1,1.404371929e1,2.437060304e1
2.899868208e0,-6.720675468e0,-1.859932518e1,1.485232735e1,2.473244839e1
2.909901208e0,-3.814240217e0,-1.930861855e1,1.538667107e1,2.498241031e1
2.919934208e0,-7.628167868e-1,-1.963976288e1,1.559562016e1,2.509034761e1
2.929967208e0,2.302777529e0,-1.956942177e1,1.545659065e1,2.504338730e1
2.940000208e0,5.245835781e0,-1.910108948e1,1.498049355e1,2.483516859e1
2.950033208e0,7.951579094e0,-1.826731873e1,1.422214317e1,2.447839660e1
2.960066208e0,1.033894062e1,-1.715037346e1,1.324301338e1,2.400846531e1
2.970099208e0,1.237626648e1,-1.583353519e1,1.213169289e1,2.347447084e1
2.980132208e0,1.406326389e1,-1.440980053e1,1.095817089e1,2.292377046e1
2.990165000e0,1.542758846e1,-1.296186543e1,9.785933495e0,2.240055659e1
3.000199000e0,1.652256966e1,-1.155853748e1,8.656953812e0,2.194397289e1
3.010232000e0,1.738205719e1,-1.025094223e1,7.606228352e0,2.156553821e1
3.020265000e0,1.806447029e1,-9.083502769e0,6.637233257e0,2.128116479e1
3.030298000e0,1.859966850e1,-8.082152367e0,5.757379055e0,2.108118281e1
3.040331000e0,1.901053619e1,-7.217809677e0,4.964338779e0,2.093183992e1
3.050364000e0,1.932562828e1,-6.478258610e0,4.252203465e0,2.082135868e1
3.060397000e0,1.955375671e1,-5.870488644e0,3.603829384e0,2.073160931e1
3.070430000e0,1.973010826e1,-5.391394138e0,3.005920172e0,2.067316761e1
3.080463000e0,1.985027504e1,-4.996501446e0,2.449950218e0,2.061554515e1
3.090496000e0,1.991956902e1,-4.666248798e0,1.936007857e0,2.055021251e1
3.100529000e0,1.993792152e1,-4.395708561e0,1.460161090e0,2.046887977e1
3.110562000e0,1.990903091e1,-4.185988903e0,1.011070132e0,2.036944471e1
3.120596000e0,1.986316490e1,-4.032195091e0,5.818883181e-1,2.027664941e1
3.130629000e0,1.981455421e1,-3.934376717e0,1.674701124e-1,2.020207725e1
3.140662000e0,1.976580811e1,-3.916476488e0,-2.374136448e-1,2.015148440e1
3.150695000e0,1.971782875e1,-3.976696014e0,-6.463513970e-1,2.012522427e1
3.160728000e0,1.967824173e1,-4.113844395e0,-1.062599182e0,2.013171702e1
3.170761000e0,1.963819313e1,-4.349909306e0,-1.499290824e0,2.016998298e1
3.180794000e0,1.959774399e1,-4.675821781e0,-1.964907765e0,2.024341229e1
3.190827000e0,1.953764153e1,-5.053971291e0,-2.466131210e0,2.033085993e1
3.200860000e0,1.944257927e1,-5.488395691e0,-3.013916016e0,2.042596548e1
3.210893000e0,1.930841255e1,-5.973765850e0,-3.615536690e0,2.053223756e1
3.220926000e0,1.910772133e1,-6.516958714e0,-4.275174141e0,2.063620312e1
3.230960000e0,1.881668282e1,-7.155007362e0,-4.988847733e0,2.074006471e1
3.240993000e0,1.840024376e1,-7.882722855e0,-5.764301777e0,2.083106970e1
3.251026000e0,1.780425072e1,-8.707842827e0,-6.602327347e0,2.089039484e1
3.261059000e0,4.955108166e0,-3.273159027e0,-2.698190451e0,6.522798376e0
3.271092000e0,-9.470723152e0,4.623576641e0,4.979763508e0,1.165633315e1
3.281125000e0,-1.002932549e1,-4.995817661e0,3.843371391e0,1.184555053e1
3.291158000e0,3.903026879e-1,-1.161556721e0,-1.383802652e0,1.848366842e0
3.301191000e0,1.552825570e0,5.496158600e0,6.193847656e-1,5.744794521e0
3.311224000e0,9.713735580e-1,1.045021343e1,2.840643227e-1,1.049910567e1
3.321257000e0,-1.293786466e-1,1.230547428e1,-5.329811573e-1,1.231769073e1
3.331291000e0,-5.426948667e-1,1.234453487e1,-5.785089731e-1,1.236999319e1
3.341324000e0,-5.862346888e-1,1.230745125e1,-5.845677853e-1,1.233526436e1
3.351357000e0,-5.274565816e-1,1.230214691e1,-6.398824453e-1,1.233006402e1
3.361390000e0,-4.637601972e-1,1.229133987e1,-6.884753704e-1,1.231933877e1
3.371423000e0,-4.004171789e-1,1.228345108e1,-7.350484729e-1,1.231193732e1
3.381456000e0,-3.305608332e-1,1.226542187e1,-7.779154181e-1,1.229451083e1
3.391489000e0,-2.529054582e-1,1.223961353e1,-8.169671893e-1,1.226945541e1
3.401522000e0,-1.707860976e-1,1.220771790e1,-8.472172618e-1,1.223827280e1
3.411555000e0,-8.666269481e-2,1.217798805e1,-8.737548590e-1,1.220960077e1
3.421588000e0,9.254954755e-3,1.214974880e1,-8.939709067e-1,1.218259683e1
3.431622000e0,1.078262702e-1,1.213119125e1,-9.067996144e-1,1.216551328e1
3.441655000e0,2.107722759e-1,1.211351681e1,-9.119275808e-1,1.214962248e1
3.451688000e0,3.172347844e-1,1.209867764e1,-9.118646979e-1,1.213713869e1
3.461721000e0,4.247856736e-1,1.208850384e1,-9.014786482e-1,1.212951078e1
3.471754000e0,5.280630589e-1,1.207971954e1,-8.868781328e-1,1.212373819e1
3.481787000e0,6.285502911e-1,1.207445335e1,-8.621729016e-1,1.212150326e1
3.491820000e0,7.245210409e-1,1.207196617e1,-8.311126828e-1,1.212221293e1
3.501853000e0,8.136473894e-1,1.206826973e1,-7.963631153e-1,1.212185425e1
3.511886000e0,9.044129848e-1,1.206406307e1,-7.505237460e-1,1.212117431e1
3.521919000e0,9.856404662e-1,1.206153011e1,-7.026734948e-1,1.212211804e1
3.531952000e0,1.065688610e0,1.205547333e1,-6.472563148e-1,1.211978012e1
3.541986000e0,1.133374214e0,1.204977226e1,-5.870494843e-1,1.211718514e1
3.552019000e0,1.195380569e0,1.204158592e1,-5.232856870e-1,1.211208298e1
3.562052000e0,1.250004649e0,1.203580189e1,-4.550607502e-1,1.210909241e1
3.572085000e0,1.297000885e0,1.203007889e1,-3.829410076e-1,1.210585202e1
3.582118000e0,1.331669331e0,1.202235985e1,-3.070810735e-1,1.209978423e1
3.592151000e0,1.360243201e0,1.201802254e1,-2.296685874e-1,1.209693659e1
3.602184000e0,1.374045372e0,1.201281643e1,-1.509785652e-1,1.209208641e1
3.612217000e0,1.383759260e0,1.201240826e1,-7.176284492e-2,1.209205904e1
3.622250000e0,1.383163571e0,1.200883579e1,9.630342945e-3,1.208823276e1
3.632283000e0,1.367445350e0,1.200745392e1,8.635095507e-2,1.208537599e1
3.642316000e0,1.344775200e0,1.200712872e1,1.656142473e-1,1.208333515e1
3.652350000e0,1.312610149e0,1.200323296e1,2.430206239e-1,1.207723502e1
3.662383000e0,1.268179059e0,1.200113392e1,3.159477413e-1,1.207208832e1
3.672416000e0,1.219323039e0,1.199762344e1,3.862442672e-1,1.206560822e1
3.682449000e0,1.159814954e0,1.199192142e1,4.531890452e-1,1.205639791e1
3.692482000e0,1.094856501e0,1.198470974e1,5.138211846e-1,1.204557971e1
3.702515000e0,1.018705010e0,1.198238277e1,5.714304447e-1,1.203917728e1
3.712548000e0,9.394505620e-1,1.197641850e1,6.242382526e-1,1.202941564e1
3.722581000e0,8.542475700e-1,1.197402477e1,6.663479805e-1,1.202293757e1
3.732614000e0,7.617083192e-1,1.197228146e1,7.095780373e-1,1.201745496e1
3.742647000e0,6.658650041e-1,1.197250462e1,7.408226728e-1,1.201386954e1
3.752680000e0,5.705180168e-1,1.197801208e1,7.674625516e-1,1.201612513e1
3.762714000e0,4.739520550e-1,1.199605274e1,7.883030176e-1,1.203126484e1
3.772747000e0,3.724914789e-1,1.202267265e1,7.995697856e-1,1.205498733e1
3.782780000e0,2.742556334e-1,1.205721569e1,8.052851558e-1,1.208718952e1
3.792813000e0,1.781429499e-1,1.209844685e1,8.062545657e-1,1.212659051e1
3.802846000e0,8.347866684e-2,1.215185070e1,7.981814742e-1,1.217832245e1
3.812879000e0,-1.716591790e-2,1.220251369e1,7.820888162e-1,1.222756305e1
3.822912000e0,-1.078580916e-1,1.225938988e1,7.588635087e-1,1.228332802e1
3.832945000e0,-1.953016520e-1,1.231410599e1,7.302608490e-1,1.233728616e1
3.842978000e0,-2.768895328e-1,1.236136913e1,6.968281865e-1,1.238408996e1
3.853011000e0,-3.513880074e-1,1.238896465e1,6.564999223e-1,1.241132188e1
3.863045000e0,-4.235992730e-1,1.240534115e1,6.091569066e-1,1.242750971e1
3.873078000e0,-2.187561095e-1,1.181659126e1,5.463625193e-1,1.183123811e1
3.883111000e0,5.765989304e0,-1.087564754e1,-1.219790936e0,1.236989216e1
3.893144000e0,9.132654190e0,-2.330849075e1,-2.001671553e0,2.511369751e1
3.903177000e0,7.121281624e0,-8.480504036e0,-1.829182953e-1,1.107542594e1
3.913210000e0,-2.202858180e-1,2.931715965e0,-4.658099115e-1,2.976653022e0
3.923243000e0,-4.279732704e0,2.250479221e0,4.815281928e-2,4.835606212e0
3.933276000e0,-3.326955557e0,3.701545715e0,7.892165333e-2,4.977579993e0
3.943309000e0,-3.135611296e0,3.733793259e0,1.106002182e-1,4.877038313e0
3.953342000e0,-3.123431444e0,3.764056921e0,4.577009007e-2,4.891425497e0
3.963375000e0,-3.117647171e0,3.779728889e0,-1.796400733e-2,4.899632340e0
3.973409000e0,-3.105695486e0,3.785368681e0,-8.090648800e-2,4.897030362e0
3.983442000e0,-3.103299141e0,3.787620544e0,-1.469655633e-1,4.898789016e0
3.993475833e0,-3.098490715e0,3.787210464e0,-2.154455632e-1,4.897961270e0
4.003508833e0,-3.090457916e0,3.790005207e0,-2.850807011e-1,4.898605986e0
4.013541833e0,-3.075723648e0,3.798681498e0,-3.497371972e-1,4.900242156e0
4.023574833e0,-3.062130690e0,3.807389975e0,-4.194882214e-1,4.903960965e0
4.033607833e0,-3.045571566e0,3.821500301e0,-4.863306284e-1,4.910793031e0
4.043640833e0,-3.024021149e0,3.834471941e0,-5.539016724e-1,4.914741706e0
4.053673833e0,-3.002198458e0,3.851395845e0,-6.202825904e-1,4.922519277e0
4.063706833e0,-2.977337122e0,3.872920275e0,-6.895334125e-1,4.933508297e0
4.073739833e0,-2.948909760e0,3.890090704e0,-7.548279762e-1,4.939497923e0
4.083773833e0,-2.916927814e0,3.914051771e0,-8.232447505e-1,4.950353630e0
4.093806833e0,-2.880947828e0,3.934678316e0,-8.879345059e-1,4.956811629e0
4.103839833e0,-2.837851048e0,3.948769569e0,-9.552416205e-1,4.955670109e0
4.113872833e0,-6.845496297e-1,4.104818106e-1,-6.012390852e-1,9.992957269e-1
4.123905833e0,2.668829441e0,-4.835454464e0,5.975922346e-1,5.555302596e0
4.133938833e0,4.590073109e0,-7.472983837e0,1.430466533e0,8.885971701e0
4.143971833e0,6.185724735e0,-9.609555244e0,1.330509543e0,1.150552033e1
4.154004833e0,8.171543121e0,-1.196096706e1,1.424119473e0,1.455565067e1
4.164037833e0,9.675741196e0,-1.353747272e1,1.023710728e0,1.667126627e1
4.174070833e0,1.047862530e1,-1.423048496e1,1.215856448e-1,1.767266458e1
4.184103833e0,1.117293072e1,-1.414286232e1,-8.189891577e-1,1.804233019e1
4.194137833e0,1.180219841e1,-1.415005779e1,-1.927779436e0,1.852653115e1
4.204170833e0,1.232472515e1,-1.483457279e1,-3.109236717e0,1.953537184e1
4.214203833e0,1.197995281e1,-1.621261597e1,-4.095813751e0,2.057046125e1
4.224236833e0,1.009325027e1,-1.517137241e1,-4.702625751e0,1.881911079e1
4.234269833e0,6.267621517e0,-8.779812813e0,-4.302442551e0,1.161375066e1
4.244302833e0,2.734789371e0,-1.778188109e0,-2.768224001e0,4.278327942e0
4.254335833e0,1.040604234e0,1.740114450e0,-9.856333137e-1,2.254402027e0
4.264368833e0,7.128559947e-1,1.524523139e0,5.312499404e-1,1.764811879e0
4.274401833e0,9.352970123e-1,-8.972449899e-1,1.533521295e0,2.007863699e0
4.284434833e0,6.278164983e-1,-3.886348009e0,1.605972409e0,4.251705750e0
4.294468833e0,-1.765883267e-1,-5.477883339e0,8.668870330e-1,5.548863166e0
4.304501833e0,-9.313128591e-1,-5.109301567e0,-2.242304236e-1,5.198325252e0
4.314534833e0,-1.576522112e0,-3.977093458e0,-1.333567500e0,4.481193660e0
4.324567833e0,-2.180208921e0,-2.986247778e0,-2.222802162e0,4.314143737e0
4.334600833e0,-2.562306881e0,-2.102616549e0,-2.857470036e0,4.376248154e0
4.344633833e0,-2.737596273e0,-1.411725760e0,-3.324832201e0,4.532318627e0
4.354666833e0,-2.809452295e0,-8.759835958e-1,-3.606671572e0,4.654938161e0
4.364699833e0,-2.773551702e0,-2.695067227e-1,-3.762614965e0,4.682146335e0
4.374732833e0,-2.651279211e0,5.246827602e-1,-3.853984594e0,4.707204128e0
4.384765833e0,-2.406283617e0,1.356980324e0,-3.790624619e0,4.690461752e0
4.394798833e0,-1.396738648e0,8.788754344e-1,-2.837948799e0,3.282872868e0
4.404832833e0,-5.577935576e-1,1.359841585e0,-2.260779858e0,2.696558613e0
4.414865833e0,-9.331935644e-2,2.930419207e0,-2.377633810e0,3.774812282e0
4.424898833e0,6.675238255e-3,4.806833744e0,-2.521767378e0,5.428167823e0
4.434931833e0,-2.615647763e-2,6.431572437e0,-2.738646507e0,6.990421509e0
4.444964833e0,-1.399249863e-2,7.917750359e0,-2.973188877e0,8.457589410e0
4.454997833e0,1.063448340e-1,9.302385330e0,-3.196650028e0,9.836882304e0
4.465030833e0,3.274162412e-1,1.067821026e1,-3.390885115e0,1.120845563e1
4.475063833e0,6.871062517e-1,1.191527462e1,-3.540576458e0,1.244915925e1
4.485096833e0,1.351508856e0,1.261094093e1,-3.518736124e0,1.316221529e1
4.495129833e0,7.879341245e-1,1.270604610e1,-3.672894239e0,1.324970188e1
4.505163833e0,-3.127012491e0,6.759819031e0,-2.016038895e0,7.716072399e0
4.515196833e0,-2.036717653e0,5.426615238e0,-1.252581120e0,5.930036358e0
4.525229833e0,-8.943230510e-1,4.243898392e0,-7.076961994e-1,4.394464835e0
4.535262833e0,-3.120297790e-1,2.478024721e0,-2.691454589e-1,2.512052623e0
4.545295833e0,1.218752339e-1,8.734410405e-1,2.700683475e-1,9.223284319e-1
4.555328833e0,6.641571522e-1,-2.089205682e-1,7.197324038e-1,1.001382674e0
4.565361833e0,9.341069460e-1,-1.360137224e0,1.016609550e0,1.938046447e0
4.575394833e0,9.816118479e-1,-2.309004545e0,1.258451939e0,2.806913802e0
4.585427833e0,8.274056911e-1,-2.857776403e0,1.381303668e0,3.280165540e0
4.595460833e0,5.024137497e-1,-3.114358425e0,1.458861828e0,3.475618766e0
4.605493833e0,-5.252883770e-3,-3.005019426e0,1.516968846e0,3.366209118e0
4.615527833e0,-7.131370902e-1,-2.489013433e0,1.467922449e0,2.976331416e0
4.625560833e0,-1.395086527e0,-1.293947816e0,1.279812932e0,2.293139444e0
4.635593833e0,-1.578855753e0,-2.608080208e-1,1.142477393e0,1.966230125e0
4.645626833e0,-1.529265881e0,4.547216892e-1,9.246390462e-1,1.844012829e0
4.655659833e0,-1.522325754e0,9.035442472e-1,6.686418653e-1,1.892339782e0
4.665692833e0,-1.589197993e0,1.040232539e0,3.458159864e-1,1.930601640e0
4.675725833e0,-1.633079886e0,8.307842612e-1,2.470346354e-2,1.832419893e0
4.685758833e0,-1.473230362e0,3.323385119e-1,-2.017105669e-1,1.523661294e0
4.695791833e0,-1.150860548e0,-1.564825773e-1,-3.269161582e-1,1.206582352e0
4.705824833e0,-7.455888987e-1,-3.328200579e-1,-3.613224328e-1,8.928750736e-1
4.715857833e0,-3.163997829e-1,-1.573595554e-1,-3.253332675e-1,4.803255013e-1
4.725891833e0,1.005933881e-1,1.395778358e-2,-2.319763899e-1,2.532328867e-1
4.735924833e0,4.395884871e-1,6.969561428e-2,-1.246312931e-1,4.621996061e-1
4.745957833e0,6.811220050e-1,1.049477533e-1,-2.449750714e-2,6.895950583e-1
4.755990833e0,8.274406195e-1,7.422313094e-2,4.763687402e-2,8.321275886e-1
4.766023833e0,8.677147031e-1,3.164734691e-2,6.811137497e-2,8.709589657e-1
4.776056833e0,8.184949160e-1,2.847738937e-2,4.507663101e-2,8.202297189e-1
4.786089833e0,6.911492348e-1,1.360429917e-2,-9.364953265e-3,6.913465441e-1
4.796122833e0,5.204171538e-1,-1.724762283e-2,-6.976411492e-2,5.253556188e-1
4.806155833e0,3.198895156e-1,-2.756488509e-2,-1.198041365e-1,3.426983458e-1
4.816188833e0,1.136298254e-1,-3.977547958e-2,-1.439440846e-1,1.876532054e-1
4.826221833e0,-8.398090303e-2,-3.048695251e-2,-1.449258626e-1,1.702520249e-1
4.836255833e0,-2.611527741e-1,-1.228451263e-2,-1.135825962e-1,2.850485692e-1
4.846288833e0,-4.034149945e-1,7.967583369e-4,-6.020434201e-2,4.078833845e-1
4.856321833e0,-4.909320474e-1,1.572031528e-2,3.795410041e-3,4.911983394e-1
4.866354833e0,-5.371112823e-1,2.671224624e-2,6.904561073e-2,5.421894227e-1
4.876387833e0,-5.318941474e-1,3.021483682e-2,1.188720241e-1,5.458524329e-1
4.886420833e0,-4.719774425e-1,3.261549398e-2,1.372821629e-1,4.926183806e-1
4.896453833e0,-3.722306192e-1,3.043330088e-2,1.219002753e-1,3.928632037e-1
4.906486833e0,-2.387269884e-1,1.849532872e-2,8.776620775e-2,2.550207039e-1
4.916519833e0,-9.086056054e-2,7.930034772e-3,3.607425466e-2,9.808098063e-2
4.926552833e0,5.526850373e-2,2.259046538e-3,-1.614567451e-2,5.762285658e-2
4.936586833e0,1.773595363e-1,-2.467215527e-4,-5.484912917e-2,1.856472272e-1
4.946619833e0,2.727178335e-1,-2.062654588e-3,-6.597751379e-2,2.805927718e-1
4.956652833e0,3.231219053e-1,1.161900815e-3,-5.475628003e-2,3.277306301e-1
4.966685833e0,3.320625424e-1,3.294358961e-3,-4.058868811e-2,3.345501853e-1
4.976718833e0,2.974846065e-1,4.740455654e-3,-2.423128486e-2,2.985074843e-1
4.986751375e0,2.355390489e-1,1.655538101e-3,-9.796351194e-3,2.357484949e-1
4.996784375e0,1.453614831e-1,2.971139736e-3,-1.335489098e-3,1.453979779e-1
5.006817375e0,4.928492010e-2,6.318618543e-4,2.177770482e-3,4.933705790e-2
5.016850375e0,-4.727091268e-2,-2.175376285e-3,4.785804078e-3,4.756233140e-2
5.026883375e0,-1.329470128e-1,-7.369602099e-4,3.134865081e-3,1.329860094e-1
5.036916375e0,-1.974304020e-1,-1.369727193e-3,2.689318266e-3,1.974534685e-1
5.046950375e0,-2.330428213e-1,-2.186070429e-3,1.086542383e-2,2.333062213e-1
5.056983375e0,-2.381899208e-1,-7.602140540e-4,1.469877828e-2,2.386442339e-1
5.067016375e0,-2.129718214e-1,-1.350150094e-3,1.648812182e-2,2.136133839e-1
5.077049375e0,-1.651225388e-1,4.046068061e-4,1.832303964e-2,1.661365412e-1
5.087082375e0,-9.959004074e-2,3.418063046e-3,1.406098343e-2,1.006358317e-1
5.097115375e0,-2.551900595e-2,3.171987133e-3,7.040359080e-3,2.666172956e-2
5.107148375e0,4.515711591e-2,2.857557265e-3,-1.311433502e-3,4.526644020e-2
5.117181375e0,1.042968705e-1,8.071893826e-4,-9.913177229e-3,1.047700331e-1
5.127214375e0,1.422329843e-1,1.823890023e-3,-1.421503816e-2,1.429531941e-1
5.137247375e0,1.602609903e-1,2.274762839e-3,-1.486351807e-2,1.609648524e-1
5.147280375e0,1.565734893e-1,9.072755929e-4,-1.347527094e-2,1.571549033e-1
5.157314375e0,1.283479780e-1,6.023435853e-4,-1.126111858e-2,1.288424583e-1
5.167347375e0,8.554741740e-2,2.152614994e-3,-7.960189134e-3,8.594392932e-2
5.177380375e0,3.503550962e-2,-1.420015586e-3,-5.673067179e-3,3.552023465e-2
5.187413375e0,-1.878369413e-2,6.260457449e-4,2.887449227e-4,1.879634199e-2
5.197446375e0,-6.542895734e-2,-1.604351681e-3,1.409136690e-3,6.546379205e-2
5.207479375e0,-9.971547127e-2,-5.224851193e-4,5.470604636e-3,9.986678985e-2
5.217512375e0,-1.208913252e-1,-2.393888310e-3,7.983030751e-3,1.211782653e-1
5.227545375e0,-1.250851899e-1,-1.196043682e-3,8.019842207e-3,1.253477289e-1
5.237578375e0,-1.074824929e-1,-3.830975387e-3,6.152433343e-3,1.077265756e-1
5.247611375e0,-7.988629490e-2,-5.474295467e-4,3.891042434e-3,7.998287319e-2
5.257645375e0,-4.463615641e-2,-2.358397469e-4,4.089448135e-3,4.482371767e-2
5.267678375e0,-3.468297655e-3,1.030534273e-3,-6.540678442e-6,3.618166979e-3
5.277711375e0,3.333791718e-2,2.576232888e-3,-1.288320171e-3,3.346211988e-2
5.287744375e0,6.244600564e-2,-1.215038239e-3,-5.588617176e-3,6.270735667e-2
5.297777375e0,8.077414334e-2,2.560918219e-4,-5.090872757e-3,8.093481822e-2
5.307810375e0,8.620468527e-2,7.011955604e-4,-6.204992533e-3,8.643055808e-2
5.317843375e0,7.810121775e-2,3.342118580e-4,-5.984748714e-3,7.833089511e-2
5.327876375e0,5.890240148e-2,2.142803278e-4,-4.757710733e-3,5.909462435e-2
5.337909375e0,3.388253599e-2,-6.481911987e-5,-2.456473419e-3,3.397152791e-2
5.347942375e0,2.954002935e-3,-2.154245740e-3,-3.975126892e-3,5.400790855e-3
5.357975375e0,-2.409146167e-2,-1.279131044e-3,6.920626620e-4,2.413531961e-2
5.368009375e0,-4.899344593e-2,-8.259525057e-4,4.533070140e-3,4.920963998e-2
5.378042375e0,-6.573647261e-2,-2.978476696e-4,4.684603773e-3,6.590385464e-2
5.388075375e0,-6.863070279e-2,1.935965847e-4,4.408942070e-3,6.877244809e-2
5.398108375e0,-6.580562145e-2,-2.835749183e-3,3.862461541e-3,6.597984462e-2
5.408141375e0,-5.040980503e-2,-1.605160069e-4,1.847925829e-3,5.044391974e-2
5.418174375e0,-3.233066946e-2,1.236844575e-3,2.370704431e-3,3.244105750e-2
5.428207375e0,-5.308277439e-3,-9.717578068e-4,5.577341653e-5,5.396779899e-3
5.438240375e0,1.488327794e-2,8.098967373e-5,-1.971424790e-3,1.501349517e-2
5.448273375e0,3.300582245e-2,2.208056394e-3,-1.825483749e-3,3.312992936e-2
5.458306375e0,4.642762244e-2,8.362622466e-4,-8.800614160e-4,4.644349220e-2
5.468339375e0,4.722346365e-2,-5.086890887e-4,-1.261984231e-3,4.724306180e-2
5.478372375e0,4.378878698e-2,7.461924106e-4,-3.378930734e-3,4.392529842e-2
5.488406375e0,3.391973302e-2,3.392272629e-4,-1.225087093e-3,3.394354433e-2
5.498439375e0,1.787578501e-2,-1.284768339e-3,-1.413372811e-3,1.797753993e-2
5.508472375e0,1.959400252e-3,-2.862308873e-3,-1.174130477e-3,3.662054588e-3
5.518505375e0,-1.460333169e-2,-3.067397047e-4,7.364212070e-4,1.462510519e-2
5.528538375e0,-2.872456610e-2,-2.316840459e-3,2.294306410e-3,2.890903474e-2
5.538571375e0,-3.837905824e-2,-2.709999681e-4,2.902572509e-3,3.848961522e-2
5.548604375e0,-3.756989911e-2,1.273737988e-3,1.173624652e-3,3.760980088e-2
5.558637375e0,-3.841385245e-2,-2.479987452e-3,1.997074112e-3,3.854559252e-2
5.568670375e0,-2.816600911e-2,-1.636391156e-3,5.330445711e-4,2.821853968e-2
5.578703375e0,-1.677433774e-2,-2.855852712e-3,-1.175657380e-4,1.701611363e-2
5.588736375e0,-4.748834297e-3,3.947231453e-4,-8.844747208e-5,4.766031525e-3
5.598770375e0,5.910467822e-3,1.952524763e-4,-1.450920710e-3,6.089082387e-3
5.608803375e0,1.859998703e-2,-1.042148797e-3,-3.500163788e-3,1.895512432e-2
5.618836375e0,2.763236314e-2,1.994387712e-3,-9.342082776e-4,2.771998954e-2
5.628869375e0,2.880805545e-2,-6.550610997e-4,-1.364104683e-3,2.884777193e-2
5.638902375e0,2.645728365e-2,-1.708341297e-3,-1.446129987e-3,2.655179052e-2
5.648935375e0,1.642329618e-2,-2.713385038e-4,-3.130753990e-3,1.672124106e-2
5.658968375e0,8.159774356e-3,-1.932351966e-3,-2.673231065e-4,8.389717713e-3
5.669001375e0,-2.343204571e-3,5.961942952e-4,7.693535881e-4,2.537313588e-3
5.679034375e0,-1.373434346e-2,-4.160732497e-4,4.092941526e-4,1.374673885e-2
5.689067375e0,-1.948295161e-2,-6.584236398e-4,2.873932710e-3,1.970478151e-2
5.699100375e0,-2.648600005e-2,2.571712248e-4,2.424657345e-3,2.659799426e-2
5.709134375e0,-2.555513382e-2,-3.358602524e-3,2.048680093e-3,2.585618235e-2
5.719167375e0,-2.193802968e-2,7.767416537e-5,2.839372493e-3,2.212114860e-2
5.729200375e0,-1.532486826e-2,-1.312816050e-3,-2.275228500e-3,1.554836769e-2
5.739233375e0,-9.299466386e-3,-1.651836559e-3,-8.878298104e-6,9.445036682e-3
5.749266375e0,-8.335435996e-4,3.532702103e-4,1.297135954e-3,1.581820615e-3
5.759299375e0,8.881933987e-3,-2.264883369e-3,-3.774596844e-4,9.173926305e-3
5.769332375e0,1.292789541e-2,-5.574966781e-5,3.806191962e-4,1.293361739e-2
5.779365375e0,1.781346463e-2,-1.138590975e-3,-2.746997401e-3,1.805995310e-2
5.789398375e0,1.833615452e-2,4.527941346e-4,-1.618404873e-3,1.841300680e-2
5.799431375e0,1.208571531e-2,9.454789106e-4,-2.922288608e-3,1.246989237e-2
5.809464375e0,9.558108635e-3,1.452414552e-3,-7.845689543e-4,9.699613248e-3
5.819498375e0,2.318572253e-3,1.779983286e-3,2.036251128e-3,3.562363884e-3
5.829531375e0,-4.517939873e-3,7.949932478e-5,2.826466225e-3,5.329822901e-3
5.839564375e0,-9.902851656e-3,-1.344503835e-5,-4.976913333e-4,9.915359215e-3
5.849597375e0,-1.395867113e-2,9.588170797e-4,-7.615850773e-4,1.401227468e-2
5.859630375e0,-1.695872098e-2,-1.772874966e-4,4.939443897e-3,1.766430735e-2
5.869663375e0,-2.306179516e-2,-1.988934819e-4,2.866060939e-3,2.324005723e-2
5.879696375e0,-3.192932159e-2,1.751605421e-3,2.486027777e-3,3.207382161e-2
5.889729375e0,-3.714174777e-2,1.798056997e-3,8.106750436e-3,3.805866313e-2
5.899762375e0,-3.142900392e-2,3.423916642e-3,1.242240239e-2,3.396794922e-2
5.909795375e0,-1.081427187e-2,7.009564433e-3,2.085547894e-2,2.451598400e-2
5.919828375e0,1.402449794e-2,2.374865580e-3,2.111966535e-2,2.546304761e-2
5.929862375e0,3.381586820e-2,-4.980686121e-3,3.748812014e-3,3.438566224e-2
5.939895375e0,3.140198067e-2,-4.389730282e-3,-2.561999671e-2,4.076442510e-2
5.949928375e0,1.850411110e-2,-4.231385887e-3,-3.380525112e-2,3.876985630e-2
5.959961375e0,-6.305365823e-3,1.412385143e-3,-1.551918965e-2,1.681064298e-2
5.969994375e0,-2.862993255e-2,5.623551551e-4,2.103263885e-2,3.552972246e-2
5.980027375e0,-5.570362881e-2,2.080889652e-3,3.964813426e-2,6.840467027e-2
5.990060250e0,-6.786415726e-2,1.742998371e-3,3.000110015e-2,7.422026606e-2
6.000093250e0,-6.562070549e-2,-2.977820113e-4,9.504880756e-3,6.630617181e-2
6.010126250e0,-4.806044698e-2,-8.321689675e-4,-9.466297925e-3,4.899091615e-2
6.020159250e0,-2.102483436e-2,-1.039629220e-3,-1.778601296e-2,2.755842423e-2
6.030192250e0,6.045400631e-3,-8.131256327e-4,-9.594216011e-3,1.136912587e-2
6.040225250e0,2.131117135e-2,1.110209385e-3,3.710661549e-4,2.134329589e-2
6.050259250e0,2.831404284e-2,2.906312235e-3,1.450878102e-2,3.194740051e-2
6.060292250e0,2.580667660e-2,-1.719065709e-3,2.126362361e-2,3.348255416e-2
6.070325250e0,1.020294894e-2,-2.272131387e-4,1.046335045e-2,1.461620660e-2
6.080358250e0,-1.865698141e-3,8.742790669e-6,-1.271868590e-3,2.257998162e-3
6.090391250e0,-1.166151371e-2,-6.132860435e-4,-1.786951534e-2,2.134681710e-2
6.100424250e0,-1.408472378e-2,-3.218441270e-5,-2.190207317e-2,2.603999403e-2
6.110457250e0,-7.827186026e-3,-3.515854478e-3,-1.121353917e-2,1.411982771e-2
6.120490250e0,-2.834823914e-3,-6.966320798e-4,5.379552022e-3,6.120547592e-3
6.130523250e0,-1.018011943e-3,6.535826251e-4,1.580973528e-2,1.585595309e-2
6.140556250e0,3.625475569e-3,2.024577698e-3,1.906305365e-2,1.951007439e-2
6.150589250e0,4.925450776e-3,-1.329919673e-3,6.334444508e-3,8.133507171e-3
6.160623250e0,8.031495847e-3,2.374803647e-3,-4.190900829e-3,9.365269225e-3
6.170656250e0,1.137509476e-2,5.819262005e-4,-1.157522388e-2,1.623937273e-2
6.180689250e0,1.354929991e-2,-1.951842569e-4,-6.826807745e-3,1.517323067e-2
6.190722250e0,1.812940650e-2,-1.820945414e-3,-4.596232437e-3,1.879139630e-2
6.200755250e0,1.849745587e-2,-6.353062345e-4,-2.241211478e-4,1.850971955e-2
6.210788250e0,1.171145216e-2,8.454872295e-4,3.931031562e-3,1.238248640e-2
6.220821250e0,4.413858987e-3,4.071309231e-4,7.246932946e-3,8.495054083e-3
6.230854250e0,-7.228595205e-3,1.668022713e-3,4.934213124e-3,8.909621067e-3
6.240887250e0,-2.036650106e-2,1.156663056e-4,6.547794910e-4,2.037735214e-2
6.250920250e0,-2.834550664e-2,-8.736660238e-4,-6.742542610e-4,2.836698182e-2
6.260953250e0,-3.311789036e-2,-5.897730589e-4,-1.926206052e-3,3.317910131e-2
6.270986250e0,-2.877428383e-2,-1.601989963e-3,-3.165996168e-4,2.882058322e-2
6.281020250e0,-2.064951137e-2,-1.120756730e-3,2.542570001e-3,2.083562040e-2
6.291053250e0,-9.085702710e-3,-1.321386080e-4,3.485928755e-3,9.732376566e-3
6.301086250e0,5.366206635e-3,3.427442629e-3,2.605753951e-3,6.879933886e-3
6.311119250e0,1.661238074e-2,1.160181127e-4,7.288685068e-3,1.814137768e-2
6.321152250e0,2.462636493e-2,1.029748702e-3,3.271040507e-3,2.486398878e-2
6.331185250e0,2.498047613e-2,1.662662253e-4,8.131508948e-4,2.499426027e-2
6.341218250e0,2.020063438e-2,-1.790890819e-3,-1.577568939e-3,2.034113180e-2
6.351251250e0,1.417301316e-2,-4.856337328e-4,-2.604276640e-3,1.441847422e-2
6.361284250e0,5.969678517e-3,1.332506305e-3,-5.963055417e-3,8.542286846e-3
6.371317250e0,-3.354671411e-3,-2.437161980e-3,-5.197900347e-3,6.649191441e-3
6.381350250e0,-7.880980149e-3,-2.919859253e-4,1.956149004e-3,8.125369088e-3
6.391383250e0,-1.089745108e-2,-1.483126078e-3,4.771170206e-3,1.198825125e-2
6.401417250e0,-1.404584013e-2,-6.599429762e-4,4.455319140e-3,1.475028875e-2
6.411450250e0,-1.204758976e-2,-8.124883752e-4,3.655713052e-3,1.261621156e-2
6.421483250e0,-1.084730309e-2,-1.793064293e-3,5.608538631e-4,1.100879743e-2
6.431516250e0,-1.519269031e-2,8.817773778e-4,-2.291417448e-3,1.538980065e-2
6.441549250e0,-1.344352588e-2,-3.423222341e-3,-3.860818455e-3,1.439974855e-2
6.451582250e0,-1.307254471e-2,-2.878464293e-3,-5.101671442e-3,1.432494445e-2
6.461615250e0,-7.220514119e-3,-1.097874832e-3,1.040376606e-3,7.377230969e-3
6.471648250e0,-2.733534202e-3,-5.666366778e-4,-2.033498604e-4,2.799042251e-3
6.481681250e0,-5.998673441e-5,9.558924939e-4,-3.125395160e-4,1.007476956e-3
6.491714250e0,8.590849116e-3,2.370931907e-3,9.265119443e-4,8.960046374e-3
6.501747250e0,9.798591956e-3,6.153760478e-4,-2.077800222e-3,1.003535479e-2
6.511781250e0,9.000974707e-3,2.645230852e-4,-1.040322473e-3,9.064755319e-3
6.521814250e0,8.623338304e-3,3.641252406e-4,-1.915730536e-4,8.633148379e-3
6.531847250e0,5.891380832e-3,-2.027193783e-3,1.272384543e-4,6.231698995e-3
6.541880250e0,2.721108031e-4,-7.725786418e-4,2.509436104e-3,2.639733246e-3
6.551913250e0,-4.330011085e-3,8.853049949e-4,7.258858532e-4,4.478802429e-3
6.561946250e0,-7.890923880e-3,1.987587428e-3,1.319770818e-3,8.243723581e-3
6.571979250e0,-1.227688324e-2,-3.419106361e-4,1.531758462e-3,1.237679477e-2
6.582012250e0,-9.004124440e-3,3.561039921e-4,1.426563598e-3,9.123384826e-3
6.592045250e0,-2.074307390e-2,-4.534715787e-3,-8.446709253e-4,2.124975837e-2
6.602078250e0,-4.446731508e-2,-2.164768754e-3,1.258959994e-3,4.453777402e-2
6.612111250e0,-7.027112693e-2,-1.255735382e-2,8.126153611e-3,7.184533935e-2
6.622144250e0,-8.849274367e-2,-6.662979722e-3,4.573763348e-3,8.886101672e-2
6.632178250e0,-9.454458952e-2,-3.263511229e-3,2.128042281e-3,9.462483013e-2
6.642211250e0,-1.030251607e-1,-2.540463116e-3,-2.749280538e-4,1.030568449e-1
6.652244250e0,-9.683783352e-2,-4.434366710e-3,6.286123767e-3,9.714290999e-2
6.662277250e0,-7.863140106e-2,-1.863883808e-3,1.403565705e-2,7.989600093e-2
6.672310250e0,-5.486171693e-2,-1.299787662e-3,1.942272857e-2,5.821288360e-2
6.682343250e0,-2.509689331e-2,-4.499043338e-3,1.750738360e-2,3.092901430e-2
6.692376250e0,-2.779698931e-3,-2.290460747e-3,1.083707809e-2,1.141994738e-2
6.702409250e0,1.805021428e-2,2.786589321e-3,2.705381252e-3,1.846332590e-2
6.712442250e0,1.078506783e-1,4.292403162e-2,-1.493264455e-2,1.170351450e-1
6.722475250e0,1.961568296e-1,2.154017612e-2,-3.392098472e-2,2.002301530e-1
6.732508250e0,3.023860753e-1,-2.716172300e-2,-4.595776275e-2,3.070622309e-1
6.742541250e0,2.834643126e-1,1.026953943e-2,-7.859133929e-2,2.943366755e-1
6.752575250e0,1.590394825e-1,-7.943417877e-2,-1.148217469e-1,2.116302892e-1
6.762608250e0,4.594141990e-2,-9.474869072e-2,-1.608265191e-1,1.922318853e-1
6.772641250e0,7.440093905e-3,-3.206274938e-3,-1.822275072e-1,1.824075097e-1
6.782674250e0,1.606850326e-1,5.282690004e-2,-1.647028476e-1,2.360876724e-1
6.792707250e0,3.857323825e-1,-5.372663029e-3,-1.523927748e-1,4.147793320e-1
6.802740250e0,-1.089415476e-1,-2.913223803e-1,-1.718756557e-1,3.553564845e-1
6.812773250e0,-3.263301551e-1,1.733987331e-1,-1.198625788e-1,3.884913495e-1
6.822806250e0,-1.271068007e-1,7.438305020e-1,-1.161893085e-2,7.547018975e-1
6.832839250e0,3.771525994e-2,1.060246825e0,-5.436039343e-2,1.062309194e0
6.842872250e0,1.158132553e-1,1.465697050e0,-1.596505940e-1,1.478907997e0
6.852905250e0,1.368693709e-1,2.061529636e0,-2.104613483e-1,2.076759891e0
6.862939250e0,1.093037948e-1,2.803278923e0,-1.304069906e-1,2.808438360e0
6.872972250e0,6.786623597e-2,3.540450335e0,8.783722669e-2,3.542189969e0
6.883005250e0,8.312961459e-2,4.034049511e0,2.964144051e-1,4.045778972e0
6.893038250e0,2.322528809e-1,4.095985889e0,4.175235033e-1,4.123756501e0
6.903071250e0,4.715948701e-1,3.968010902e0,4.134590030e-1,4.017270291e0
6.913104250e0,8.191550970e-1,3.636476517e0,3.392044008e-1,3.742998284e0
6.923137250e0,1.204630852e0,3.067528725e0,3.705865741e-1,3.316353777e0
6.933170250e0,1.595105886e0,2.411683798e0,5.449432731e-1,2.942370592e0
6.943203250e0,2.029541969e0,1.680850983e0,6.734501123e-1,2.719896264e0
6.953236250e0,2.524362803e0,8.860809803e-1,6.533870101e-1,2.753990132e0
6.963269250e0,3.027708769e0,1.285658926e-1,4.645851552e-1,3.065842290e0
6.973302250e0,3.423188210e0,-4.387404323e-1,1.814942509e-1,3.455958745e0
6.983336250e0,3.662703991e0,-6.678252816e-1,-7.387680560e-2,3.723821816e0
6.993369625e0,3.711838007e0,-4.145635366e-1,-2.554215193e-1,3.743640537e0
7.003402625e0,3.626415014e0,2.804200351e-1,-3.765306473e-1,3.656678353e0
7.013435625e0,3.456731081e0,9.934278131e-1,-5.209729075e-1,3.634185102e0
7.023468625e0,3.177626133e0,1.335932732e0,-6.932874322e-1,3.516059096e0
7.033501625e0,2.764550924e0,1.195083499e0,-7.830999494e-1,3.111946644e0
7.043534625e0,2.237543821e0,8.083679676e-1,-7.151416540e-1,2.484248117e0
7.053567625e0,1.769080281e0,5.278565884e-1,-5.118023753e-1,1.915781640e0
7.063600625e0,1.227091789e0,3.125847876e-1,-1.037016883e-1,1.270518614e0
7.073633625e0,6.424883604e-1,2.306250334e-1,4.570691884e-1,8.215177674e-1
7.083666625e0,-2.878147876e-3,2.912045121e-1,9.934964180e-1,1.035298742e0
7.093699625e0,-5.306449533e-1,4.374134541e-1,1.333421707e0,1.500309317e0
7.103732625e0,-8.780913353e-1,5.189671516e-1,1.481014013e0,1.798269670e0
7.113766625e0,-1.102915406e0,5.031266809e-1,1.603411674e0,2.010096477e0
7.123799625e0,-1.241277456e0,4.765526056e-1,1.774676323e0,2.217509450e0
7.133832625e0,-1.325228095e0,4.935240448e-1,1.886329651e0,2.357548523e0
7.143865625e0,-1.376902819e0,5.830315351e-1,1.818544984e0,2.354334938e0
7.153898625e0,-1.387273073e0,7.830728292e-1,1.523315549e0,2.204136996e0
7.163931625e0,-1.261822462e0,1.045605421e0,1.098189235e0,1.972690097e0
7.173964625e0,-9.469504356e-1,1.187692642e0,6.452434659e-1,1.650353923e0
7.183997625e0,-4.455331564e-1,1.079928041e0,3.201122582e-1,1.211287011e0
7.194030625e0,1.783075333e-1,7.119426131e-1,9.315273166e-2,7.398197701e-1
7.204063625e0,7.636677027e-1,1.573179960e-1,-3.970225528e-2,7.807135077e-1
7.214096625e0,1.156581163e0,-4.040677845e-1,-2.752987854e-2,1.225442229e0
7.224129625e0,1.399129987e0,-7.185641527e-1,-1.393390819e-2,1.572925083e0
7.234163625e0,1.517940640e0,-7.697513700e-1,-4.385205731e-2,1.702522823e0
7.244196625e0,1.492439985e0,-5.792376399e-1,-3.742798045e-2,1.601341377e0
7.254229625e0,1.393334270e0,-1.365444362e-1,2.160839550e-2,1.400175593e0
7.264262625e0,1.272108674e0,3.853661418e-1,-7.000346668e-3,1.329216516e0
7.274295625e0,1.031768799e0,6.987509727e-1,-7.545021363e-3,1.246136711e0
7.284328625e0,7.042844296e-1,6.876831651e-1,8.329549804e-3,9.843749665e-1
7.294361625e0,4.070104957e-1,3.832366168e-1,-1.819901168e-2,5.593380481e-1
7.304394625e0,2.199372649e-1,-5.294898991e-3,-2.474692650e-2,2.213884523e-1
7.314427625e0,9.055884182e-2,-1.578854620e-1,1.282850951e-1,2.226786667e-1
7.324460625e0,-1.296299845e-1,-8.105513453e-2,4.364059269e-1,4.624110734e-1
7.334493625e0,-5.824194551e-1,9.357431531e-2,9.238398075e-1,1.096106092e0
7.344526625e0,-1.148749232e0,2.482975721e-1,1.372803211e0,1.807170479e0
7.354560625e0,-1.542919040e0,5.543848872e-1,1.482097983e0,2.210103210e0
7.364593625e0,-1.705596089e0,9.673708677e-1,1.201772928e0,2.299809250e0
7.374626625e0,-1.723813653e0,1.138844967e0,8.721067905e-1,2.242559168e0
7.384659625e0,-1.677338004e0,1.000080347e0,7.733868361e-1,2.100416787e0
7.394692625e0,-1.626234770e0,6.368812919e-1,7.940972447e-1,1.918553554e0
7.404725625e0,-1.569654822e0,3.816941381e-2,8.066048026e-1,1.765186810e0
7.414758625e0,-1.514579654e0,-6.166523099e-1,7.803596854e-1,1.811952769e0
7.424791625e0,-1.539159298e0,-1.180434704e0,7.638467550e-1,2.084682062e0
7.434824625e0,-1.623663902e0,-1.556893587e0,7.735926509e-1,2.378791226e0
7.444857625e0,-1.725067258e0,-1.637368917e0,8.779553175e-1,2.535278990e0
7.454890625e0,-1.845440745e0,-1.364832044e0,1.027365446e0,2.514736132e0
7.464923625e0,-1.975738883e0,-8.947218060e-1,1.155780077e0,2.457620563e0
7.474956625e0,-2.095341206e0,-3.518885672e-1,1.294155002e0,2.487793701e0
7.484990625e0,-2.280137777e0,1.856649071e-1,1.394408584e0,2.679155658e0
7.495023625e0,-2.420831680e0,6.282624006e-1,1.412930846e0,2.872544733e0
7.505056625e0,-2.463300943e0,8.259344697e-1,1.322258711e0,2.915199373e0
7.515089625e0,-2.419826746e0,7.896217108e-1,1.142530441e0,2.790060884e0
7.525122625e0,-2.294062614e0,5.813036561e-1,9.138567448e-1,2.536882214e0
7.535155625e0,-2.116421938e0,1.436496824e-1,6.873727441e-1,2.229878548e0
7.545188625e0,-1.919258595e0,-4.627630115e-1,5.826479197e-1,2.058441584e0
7.555221625e0,-1.784055114e0,-1.218823314e0,6.229423881e-1,2.248652961e0
7.565254625e0,-1.734277725e0,-1.929759502e0,7.816657424e-1,2.709740264e0
7.575287625e0,-1.776920557e0,-2.135500193e0,1.025401831e0,2.961293071e0
7.585320625e0,-1.934988976e0,-1.647687793e0,1.254472852e0,2.834212330e0
7.595353625e0,-2.124637604e0,-7.197526097e-1,1.361171007e0,2.623912208e0
7.605386625e0,-2.327858448e0,2.775045335e-1,1.364056587e0,2.712302360e0
7.615420625e0,-2.475682259e0,1.046389103e0,1.339533448e0,3.003045564e0
7.625453625e0,-2.521958113e0,1.414166927e0,1.257738948e0,3.153101343e0
7.635486625e0,-2.411426306e0,1.465602160e0,1.111500263e0,3.032886307e0
7.645519625e0,-2.221993208e0,1.216896176e0,9.273456335e-1,2.697787991e0
7.655552625e0,-1.978848100e0,7.439742088e-1,7.595755458e-1,2.246395432e0
7.665585625e0,-1.773594022e0,1.425999403e-1,6.774564385e-1,1.903921669e0
7.675618625e0,-1.688276529e0,-5.352470279e-1,7.398470640e-1,1.919411550e0
7.685651625e0,-1.713559270e0,-1.035276294e0,9.108754992e-1,2.199494613e0
7.695684625e0,-1.844291210e0,-1.095108151e0,1.139847755e0,2.428976088e0
7.705717625e0,-1.964425802e0,-7.055676579e-1,1.317633748e0,2.468390801e0
7.715750625e0,-1.954807758e0,-5.800128728e-2,1.288297057e0,2.341868235e0
7.725783625e0,-1.812585354e0,6.084893942e-1,1.103451133e0,2.207561870e0
7.735817625e0,-1.610593677e0,9.895341992e-1,8.008675575e-1,2.052943927e0
7.745850625e0,-1.360974312e0,9.640943408e-1,4.220672250e-1,1.720427191e0
7.755883625e0,-1.121876836e0,6.252599955e-1,8.051053435e-2,1.286872038e0
7.765916625e0,-9.493172765e-1,2.344698906e-1,-1.121438667e-1,9.842538635e-1
7.775949625e0,-8.571146727e-1,1.413409263e-1,-1.304896623e-1,8.784363218e-1
7.785982625e0,-1.014494181e0,4.884192348e-1,-2.019316256e-1,1.143909163e0
7.796015625e0,-1.126962423e0,1.085060954e0,-1.790806353e-1,1.574633752e0
7.806048625e0,-1.179193854e0,1.846205115e0,-1.263359338e-1,2.194295386e0
7.816081625e0,-1.141643882e0,2.591812849e0,5.848548841e-3,2.832115605e0
7.826114625e0,-9.701467156e-1,2.478266001e0,1.084422991e-1,2.663596582e0
7.836147625e0,-7.327793837e-1,2.270626545e0,4.213633947e-3,2.385943898e0
7.846180625e0,-4.961996377e-1,2.313421249e0,-2.298550457e-1,2.377175908e0
7.856213625e0,-2.349346429e-1,2.325935841e0,-7.779518962e-1,2.463814314e0
7.866247625e0,7.402932644e-2,2.197052956e0,-1.378092051e0,2.594544224e0
7.876280625e0,3.840572238e-1,1.897561550e0,-1.662889242e0,2.552144279e0
7.886313625e0,6.004771590e-1,1.412210226e0,-1.609727859e0,2.223990630e0
7.896346625e0,7.296778560e-1,6.048948765e-1,-1.390610695e0,1.682892061e0
7.906379625e0,8.488050103e-1,-2.146662921e-1,-1.174931407e0,1.465269727e0
7.916412625e0,8.941716552e-1,-7.089961171e-1,-9.340076447e-1,1.474648678e0
7.926445625e0,8.116596937e-1,-8.532083631e-1,-6.687837243e-1,1.354262766e0
7.936478625e0,6.750643849e-1,-7.973519564e-1,-4.751429856e-1,1.147712038e0
7.946511625e0,5.768174529e-1,-6.810048223e-1,-3.351158500e-1,9.533040306e-1
7.956544625e0,5.067428350e-1,-5.310871601e-1,-2.785069346e-1,7.851165424e-1
7.966577625e0,4.873585105e-1,-4.359582365e-1,-2.923103571e-1,7.162564112e-1
7.976610625e0,5.140475631e-1,-4.819632471e-1,-3.405959308e-1,7.826487441e-1
7.986643625e0,5.509682894e-1,-5.286089778e-1,-3.985478878e-1,8.612978150e-1
7.996677375e0,5.618093610e-1,-5.237441659e-1,-4.366475940e-1,8.835150427e-1
8.006710375e0,5.559272766e-1,-5.572744608e-1,-4.244308770e-1,8.942882817e-1
8.016743375e0,5.292946100e-1,-4.407167137e-1,-3.914123774e-1,7.922043013e-1
8.026776375e0,5.071448088e-1,-2.845020592e-1,-3.023642600e-1,6.554093564e-1
8.036809375e0,5.168911815e-1,-1.567038894e-1,-2.194587141e-1,5.830049139e-1
8.046842375e0,5.334488750e-1,2.364084497e-2,-1.464012861e-1,5.536785424e-1
8.056875375e0,5.313078165e-1,1.930155158e-1,-9.464486688e-2,5.731497501e-1
8.066908375e0,5.017464757e-1,3.159800768e-1,-7.224022597e-2,5.973370782e-1
8.076941375e0,4.603313208e-1,3.916989565e-1,-8.899119496e-2,6.109438846e-1
8.086974375e0,4.658488631e-1,4.336560071e-1,-1.233467758e-1,6.482955521e-1
8.097007375e0,4.941069484e-1,4.260292053e-1,-1.464467049e-1,6.686472894e-1
8.107040375e0,5.559804440e-1,3.978665471e-1,-1.644190550e-1,7.031683077e-1
8.117073375e0,6.446997523e-1,3.950378299e-1,-1.878094524e-1,7.790796160e-1
8.127107375e0,7.384464741e-1,3.366400301e-1,-1.669718027e-1,8.285585603e-1
8.137140375e0,7.901856303e-1,2.626078129e-1,-1.256716400e-1,8.421101798e-1
8.147173375e0,7.636043429e-1,2.277595550e-1,-1.051338762e-1,8.037531582e-1
8.157206375e0,7.084085941e-1,3.063969314e-1,-1.086622253e-1,7.794416559e-1
8.167239375e0,6.366915107e-1,4.404474199e-1,-1.102838218e-1,7.820054545e-1
8.177272375e0,5.164436698e-1,5.186747909e-1,-1.219938546e-1,7.420378045e-1
8.187305375e0,3.958115280e-1,4.922464192e-1,-1.523256600e-1,6.497510366e-1
8.197338375e0,2.972908020e-1,4.650575817e-1,-1.811181307e-1,5.809166485e-1
8.207371375e0,1.847741306e-1,5.188275576e-1,-2.200618088e-1,5.930857556e-1
8.217404375e0,1.286278218e-1,5.314179659e-1,-2.648492157e-1,6.075321210e-1
8.227437375e0,1.509714872e-1,5.252274871e-1,-2.965512276e-1,6.217708048e-1
8.237470375e0,2.042898238e-1,4.976718724e-1,-2.803390622e-1,6.066313662e-1
8.247503375e0,3.087408841e-1,4.801341295e-1,-2.481393069e-1,6.224329935e-1
8.257537375e0,4.137420654e-1,4.821683764e-1,-1.966986954e-1,6.651009072e-1
8.267570375e0,4.915138185e-1,4.103415906e-1,-1.535533518e-1,6.584411034e-1
8.277603375e0,5.609657764e-1,2.664981484e-1,-5.429306254e-2,6.234192827e-1
8.287636375e0,5.599234104e-1,2.005654871e-1,1.725675352e-2,5.950113744e-1
8.297669375e0,5.093765259e-1,2.992321849e-1,4.119212180e-2,5.922002503e-1
8.307702375e0,4.185557961e-1,3.747999072e-1,8.198162913e-2,5.677894966e-1
8.317735375e0,3.286239505e-1,4.207676947e-1,1.243719757e-1,5.481856821e-1
8.327768375e0,2.569138110e-1,4.004387259e-1,1.768687367e-1,5.075809586e-1
8.337801375e0,2.085550725e-1,3.557490408e-1,1.827462614e-1,4.510529840e-1
8.347834375e0,2.127242535e-1,3.471118808e-1,1.364176422e-1,4.293577051e-1
8.357867375e0,2.729520202e-1,3.438003659e-1,7.493225485e-2,4.453272277e-1
8.367900375e0,3.400871158e-1,3.930951953e-1,-5.150972866e-4,5.197916354e-1
8.377933375e0,3.590039015e-1,5.769978762e-1,-1.570485383e-1,6.974773070e-1
8.387967375e0,3.777443171e-1,7.850658298e-1,-2.483153194e-1,9.059136957e-1
8.398000375e0,4.612320662e-1,7.239609957e-1,-1.641260237e-1,8.739518830e-1
8.408033375e0,4.872391820e-1,5.929797888e-1,-5.617293343e-2,7.695339166e-1
8.418066375e0,3.431080282e-1,9.063798785e-1,-1.667831987e-1,9.833942437e-1
8.428099375e0,-9.065887332e-2,1.514455438e0,-2.139757425e-1,1.532181426e0
8.438132375e0,-3.221274316e-1,1.259713411e0,-2.141553760e-1,1.317765717e0
8.448165375e0,-3.547546268e-1,8.543037772e-1,-2.271816880e-1,9.525215527e-1
8.458198375e0,-1.589925885e-1,5.042828321e-1,-2.434564531e-1,5.821089782e-1
8.468231375e0,1.275624782e-1,2.869310975e-1,-3.685922325e-1,4.842126334e-1
8.478264375e0,3.889098763e-1,1.050571129e-1,-4.024948776e-1,5.694646744e-1
8.488297375e0,5.313570499e-1,2.163758688e-2,-3.801211417e-1,6.536823250e-1
8.498330375e0,5.391802192e-1,-1.058443040e-1,-2.969904542e-1,6.245971944e-1
8.508363375e0,4.530932903e-1,-3.265335262e-1,-2.111809999e-1,5.970888445e-1