"Time (s)","Gyroscope x (rad/s)","Gyroscope y (rad/s)","Gyroscope z (rad/s)","Absolute (rad/s)"
1.727466666e-2,4.449396133e-1,2.114411816e-2,-5.837887526e-2,4.492509614e-1
2.730666666e-2,5.156790018e-1,1.579214334e-1,-1.456381008e-2,5.395147047e-1
3.733866667e-2,5.003085732e-1,2.667709589e-1,9.201189876e-2,5.744054339e-1
4.737066667e-2,3.935629725e-1,3.078290522e-1,1.861948073e-1,5.332157584e-1
5.740366667e-2,1.708063334e-1,3.036657274e-1,2.295081913e-1,4.172070079e-1
6.743566666e-2,-1.488137394e-1,2.785437107e-1,2.697696686e-1,4.153405854e-1
7.746766666e-2,-5.145584345e-1,3.034546673e-1,2.667514980e-1,6.542258626e-1
8.749966667e-2,-8.934080005e-1,3.630276918e-1,3.033988774e-1,1.010948979e0
9.753266667e-2,-1.258859873e0,4.229845107e-1,3.381049335e-1,1.370386450e0
1.075646667e-1,-1.561269403e0,4.602057040e-1,3.333937228e-1,1.661476094e0
1.175966667e-1,-1.790742040e0,4.875249565e-1,2.644311786e-1,1.874663032e0
1.276286667e-1,-1.949849963e0,5.203656554e-1,1.894693673e-1,2.026966683e0
1.376616667e-1,-2.047877312e0,5.845481157e-1,1.382645071e-1,2.134154413e0
1.476936667e-1,-2.090732098e0,6.614943743e-1,1.070938334e-1,2.195496436e0
1.577256667e-1,-2.082936525e0,7.400442958e-1,1.014995947e-1,2.212824506e0
1.677576667e-1,-2.030321836e0,8.121150732e-1,1.104159132e-1,2.189504356e0
1.777906667e-1,-1.946915865e0,8.807812333e-1,1.078140065e-1,2.139598286e0
1.878226667e-1,-1.855305552e0,8.882066011e-1,1.076601967e-1,2.059771924e0
1.978546667e-1,-1.903189421e0,1.619979739e-1,6.206172705e-1,2.008367275e0
2.078866667e-1,-1.908901691e0,1.119649783e-1,8.629074097e-1,2.097868209e0
2.179196667e-1,-1.709691405e0,-3.446973115e-2,1.602564454e0,2.343596743e0
2.279516667e-1,-1.264893055e0,9.028688073e-2,1.803963661e0,2.205083003e0
2.379836667e-1,-6.681789160e-1,2.795399539e-2,1.959949613e0,2.070904868e0
2.480156667e-1,-8.562970906e-2,1.834029891e-2,1.772350669e0,1.774512808e0
2.580486667e-1,4.650433064e-1,8.993219584e-2,1.543614507e0,1.614651300e0
2.680806667e-1,9.460980296e-1,1.679210663e-1,1.413430452e0,1.709118080e0
2.781126667e-1,1.274432182e0,2.239036411e-1,1.205099702e0,1.768212521e0
2.881456667e-1,1.440233707e0,2.665719390e-1,1.010231256e0,1.779297873e0
2.981776667e-1,1.441793799e0,1.513572037e-1,8.134732842e-1,1.662352895e0
3.082096667e-1,1.364426851e0,1.285980940e-1,5.240132809e-1,1.467238229e0
3.182416667e-1,1.290057778e0,8.072456717e-2,3.909524083e-1,1.350410794e0
3.282746667e-1,1.211747527e0,5.794100463e-2,2.670586407e-1,1.242179354e0
3.383066667e-1,1.114586115e0,1.179500148e-1,1.073784381e-1,1.125941625e0
3.483386667e-1,9.651045203e-1,1.570566446e-1,1.206419058e-2,9.778747719e-1
3.583706667e-1,7.658353448e-1,2.192209512e-1,-5.980493873e-2,7.988355472e-1
3.684036667e-1,5.111492872e-1,2.547334135e-1,-6.875972450e-2,5.752309149e-1
3.784356667e-1,2.047161013e-1,3.674008548e-1,-1.561079472e-1,4.486220697e-1
3.884676667e-1,-8.570428193e-2,4.997092187e-1,-2.413856536e-1,5.615350043e-1
3.984996667e-1,-3.385240138e-1,6.204612255e-1,-2.992319167e-1,7.675352632e-1
4.085326667e-1,-5.923714638e-1,6.484862566e-1,-1.401041001e-1,8.894197743e-1
4.185646667e-1,-8.853670955e-1,5.862351060e-1,2.019595057e-1,1.080895062e0
4.285966667e-1,-1.106947422e0,5.047302842e-1,2.407006919e-1,1.240170181e0
4.386286667e-1,-1.142081380e0,4.187970161e-1,2.028379887e-1,1.233241286e0
4.486616667e-1,-1.045507789e0,3.308602273e-1,2.754068673e-1,1.130665277e0
4.586936667e-1,-9.493572712e-1,2.144824862e-1,3.284786046e-1,1.027219625e0
4.687256667e-1,-9.033786058e-1,1.066299379e-1,2.515103519e-1,9.437797975e-1
4.787576667e-1,-8.658503890e-1,4.476939328e-3,1.898126453e-1,8.864230251e-1
4.887906667e-1,-8.467736244e-1,-1.169372499e-1,1.650314629e-1,8.705947824e-1
4.988226667e-1,-8.401516676e-1,-2.367656529e-1,1.916164607e-1,8.936608232e-1
5.088546667e-1,-8.178221583e-1,-2.347836345e-1,2.470030487e-1,8.859836024e-1
5.188866667e-1,-7.742627263e-1,-1.161627248e-1,2.773942649e-1,8.306167144e-1
5.289196667e-1,-6.608999372e-1,-7.943898439e-2,2.215566933e-1,7.015601525e-1
5.389516667e-1,-4.984058440e-1,-5.509849638e-2,1.577193886e-1,5.256611410e-1
5.489836667e-1,-3.668882847e-1,4.132087156e-2,7.591030747e-2,3.769307664e-1
5.590156667e-1,-2.541825175e-1,1.224468797e-1,-2.511510998e-2,2.832538779e-1
5.690486667e-1,-1.567174643e-1,1.777023077e-1,-3.911155462e-2,2.401420153e-1
5.790806667e-1,-7.527267933e-2,1.651268601e-1,5.866400898e-2,1.907205341e-1
5.891126667e-1,3.086787462e-2,1.464704573e-1,1.884459108e-1,2.406621737e-1
5.991446667e-1,1.244779825e-1,8.211383969e-2,2.517918646e-1,2.926373078e-1
6.091776667e-1,1.471382827e-1,9.498675168e-2,4.207988977e-1,4.557892820e-1
6.192096667e-1,1.703437418e-1,4.026411101e-2,4.785660505e-1,5.095720300e-1
6.292416667e-1,2.088485360e-1,2.342374623e-1,4.447000027e-1,5.442820887e-1
6.392746667e-1,2.481623739e-1,4.275302291e-1,3.298863173e-1,5.942992873e-1
6.493070417e-1,2.828798890e-1,4.920738339e-1,2.988187075e-1,6.414439255e-1
6.593390417e-1,3.099160194e-1,5.047609210e-1,3.796645701e-1,7.035458139e-1
6.693710417e-1,3.329204023e-1,4.812815785e-1,5.678651333e-1,8.154377730e-1
6.794040417e-1,3.245215714e-1,4.383255839e-1,8.310049176e-1,9.939883002e-1
6.894360417e-1,2.835576534e-1,4.403573275e-1,1.045306206e0,1.169181159e0
6.994680417e-1,2.143207788e-1,4.885128736e-1,1.201009512e0,1.314154508e0
7.095000417e-1,1.244710684e-1,4.597966075e-1,1.193408966e0,1.284963395e0
7.195330417e-1,1.168379281e-2,3.615275621e-1,1.031847477e0,1.093411133e0
7.295650417e-1,-1.290243119e-1,2.370758355e-1,9.289555550e-1,9.673730655e-1
7.395970417e-1,-2.905956209e-1,1.606726795e-1,9.078729153e-1,9.666926891e-1
7.496290417e-1,-4.575670362e-1,1.423229575e-1,9.164780974e-1,1.034193173e0
7.596620417e-1,-6.184630394e-1,1.377412677e-1,9.650291204e-1,1.154448089e0
7.696940417e-1,-7.576714754e-1,9.694992006e-2,1.076771259e0,1.320190023e0
7.797260417e-1,-8.650999665e-1,-3.072548285e-2,1.284669042e0,1.549101854e0
7.897580417e-1,-9.548359513e-1,-1.731386930e-1,1.310347199e0,1.630551589e0
7.997910417e-1,-1.057839036e0,-3.048128486e-1,1.270309806e0,1.680958447e0
8.098230417e-1,-1.196169257e0,-3.879338205e-1,1.196874142e0,1.736036074e0
8.198550417e-1,-1.369921327e0,-4.464759529e-1,1.072481632e0,1.796174287e0
8.298870417e-1,-1.545280337e0,-4.641665518e-1,9.429172277e-1,1.868805717e0
8.399200417e-1,-1.736606836e0,-4.713816047e-1,8.308412433e-1,1.981994221e0
8.499520417e-1,-1.946445584e0,-3.888852596e-1,6.239948273e-1,2.080685392e0
8.599840417e-1,-2.175025463e0,-3.439750373e-1,5.521667600e-1,2.270229663e0
8.700160417e-1,-2.385554075e0,-3.090642095e-1,4.631855786e-1,2.449679532e0
8.800490417e-1,-2.610902309e0,-3.280269802e-1,4.118515551e-1,2.663462835e0
8.900810417e-1,-2.834826708e0,-3.197205365e-1,3.036403358e-1,2.868912884e0
9.001130417e-1,-3.066076756e0,-2.616628110e-1,2.346495688e-1,3.086155297e0
9.101450417e-1,-3.289695263e0,-2.519995570e-1,1.502311230e-1,3.302751594e0
9.201780417e-1,-3.453189850e0,-3.391240835e-1,4.059303552e-2,3.470039348e0
9.302100417e-1,-3.562757015e0,-4.761641324e-1,-3.323031962e-2,3.594589557e0
9.402420417e-1,-3.659528017e0,-5.869724154e-1,4.025774449e-2,3.706521632e0
9.502740417e-1,-3.769549370e0,-6.273984909e-1,9.736245871e-2,3.822644473e0
9.603070417e-1,-3.907216787e0,-6.343504190e-1,1.591762900e-1,3.961575516e0
9.703390417e-1,-4.073935986e0,-5.786587000e-1,2.000386268e-1,4.119686366e0
9.803710417e-1,-4.302561760e0,-3.895679116e-1,1.496561468e-1,4.322753500e0
9.904030417e-1,-4.577344418e0,-1.759240329e-1,3.969469666e-2,4.580895857e0
1.000436042e0,-4.856525421e0,-7.826217264e-2,-3.507900750e-3,4.857157238e0
1.010468042e0,-5.134084225e0,-3.423841298e-2,4.353772476e-2,5.134382984e0
1.020500042e0,-5.426103592e0,-4.477387667e-2,1.885087639e-1,5.429561718e0
1.030532042e0,-5.668237686e0,-5.902829394e-2,3.685355783e-1,5.680512413e0
1.040565042e0,-5.844024658e0,1.188396290e-2,4.174274802e-1,5.858925766e0
1.050597042e0,-5.976536751e0,1.350246519e-1,4.381647706e-1,5.994098060e0
1.060629042e0,-6.078486919e0,2.080972642e-1,4.649234116e-1,6.099791921e0
1.070661042e0,-6.174015045e0,2.318793237e-1,4.809920788e-1,6.197062464e0
1.080694042e0,-6.323619843e0,2.922268510e-1,5.496276021e-1,6.354184050e0
1.090726042e0,-6.519136906e0,2.932901978e-1,5.223128200e-1,6.546600325e0
1.100758042e0,-6.806183815e0,2.625202835e-1,3.924238384e-1,6.822539959e0
1.110791042e0,-7.177943707e0,2.757773995e-1,2.468589097e-1,7.187479972e0
1.120823042e0,-7.608392715e0,3.764611185e-1,6.439083815e-2,7.617972753e0
1.130855042e0,-8.100559235e0,4.758215547e-1,-1.138338745e-1,8.115320340e0
1.140887042e0,-8.629379272e0,5.663226843e-1,-2.147303969e-1,8.650607907e0
1.150920042e0,-9.166337967e0,6.346960664e-1,-1.885265261e-1,9.190219425e0
1.160952042e0,-9.703655243e0,7.083747983e-1,-1.061562821e-1,9.730055965e0
1.170984042e0,-1.031633282e1,8.492621779e-1,8.446986228e-2,1.035157496e1
1.181016042e0,-1.113144016e1,8.781074286e-1,2.152045630e-2,1.116604209e1
1.191049042e0,-1.203057957e1,9.565860629e-1,-8.936534077e-2,1.206888097e1
1.201081042e0,-1.294847107e1,8.999978900e-1,8.894114755e-3,1.297971411e1
1.211113042e0,-1.381512547e1,8.255011439e-1,3.402341008e-1,1.384394824e1
1.221145042e0,-1.476227665e1,8.760474324e-1,4.661419690e-1,1.479559256e1
1.231178042e0,-1.570114231e1,9.254556894e-1,5.287936926e-1,1.573727934e1
1.241210042e0,-1.660275841e1,8.693271875e-1,6.615136862e-1,1.663865730e1
1.251242042e0,-1.747075653e1,6.265311837e-1,7.504599690e-1,1.749808747e1
1.261274042e0,-1.822732162e1,4.113727808e-1,6.987850666e-1,1.824534959e1
1.271307042e0,-1.881838799e1,1.225264650e-2,6.634721756e-1,1.883008422e1
1.281339042e0,-1.926226425e1,-4.336073697e-1,3.727313876e-1,1.927074903e1
1.291371042e0,-1.946558952e1,-7.460807562e-1,3.200063854e-2,1.947990852e1
1.301403042e0,-1.945737076e1,-7.662848234e-1,-3.706730306e-1,1.947598182e1
1.311436042e0,-1.915258980e1,-6.256166101e-1,-8.634420633e-1,1.918224763e1
1.321468042e0,-1.876853180e1,-4.673582613e-1,-1.237719893e0,1.881510458e1
1.331500042e0,-1.831453896e1,-2.483332455e-1,-1.461455464e0,1.837443492e1
1.341532042e0,-1.772327232e1,-1.238528267e-1,-1.527992725e0,1.778944865e1
1.351565042e0,-1.701587486e1,-2.236279249e-1,-1.097094536e0,1.705267203e1
1.361597042e0,-1.625484276e1,-3.342308700e-1,-4.668337107e-1,1.626497947e1
1.371629042e0,-1.548283672e1,-4.478307962e-1,-4.570570886e-1,1.549605390e1
1.381661042e0,-1.474096584e1,-5.661411881e-1,-4.119383395e-1,1.475758392e1
1.391694042e0,-1.398866177e1,-6.347108483e-1,-4.662950039e-1,1.401081535e1
1.401726042e0,-1.314299965e1,-6.509915590e-1,-3.451366127e-1,1.316363738e1
1.411758042e0,-1.222227669e1,-6.758873463e-1,-1.534383446e-1,1.224191221e1
1.421790042e0,-1.124066544e1,-7.481610179e-1,5.753967538e-2,1.126568308e1
1.431823042e0,-1.018035030e1,-6.860024929e-1,2.525789738e-1,1.020656298e1
1.441855042e0,-9.015466690e0,-4.913609028e-1,4.994207323e-1,9.042648741e0
1.451887042e0,-7.824313164e0,-2.223673463e-1,6.262611151e-1,7.852485384e0
1.461919042e0,-6.691476345e0,7.948683575e-3,9.041617513e-1,6.752290525e0
1.471952042e0,-5.606485367e0,2.728562653e-1,1.324952006e0,5.767376052e0
1.481984042e0,-4.581119537e0,6.929011941e-1,1.728800297e0,4.945252142e0
1.492016042e0,-3.488615513e0,9.481418133e-1,1.967388868e0,4.115826776e0
1.502048042e0,-2.306111813e0,1.218548298e0,1.856485248e0,3.201491702e0
1.512081042e0,-1.327601790e0,1.369044900e0,1.296083331e0,2.305784563e0
1.522113042e0,-5.926018357e-1,1.266526818e0,5.370196104e-1,1.497884234e0
1.532145042e0,-1.587353498e-1,8.939906955e-1,5.460721254e-2,9.096143263e-1
1.542177042e0,8.904596418e-2,5.099647641e-1,-2.636513673e-2,5.183515842e-1
1.552210042e0,3.518776000e-1,1.897453815e-1,-1.118371934e-1,4.151249366e-1
1.562242042e0,5.863587856e-1,-1.036683917e-1,-3.162369430e-1,6.742177431e-1
1.572274042e0,6.266295314e-1,-1.710336655e-2,-6.391690969e-1,8.952621009e-1
1.582307042e0,5.668191910e-1,7.583297044e-2,-5.827137828e-1,8.164496233e-1
1.592339042e0,4.798946679e-1,-7.616961002e-2,-1.993584335e-1,5.252089934e-1
1.602371042e0,5.040226579e-1,-4.271937013e-1,3.566953167e-2,6.616688096e-1
1.612403042e0,4.581318498e-1,-6.381339431e-1,7.214146852e-2,7.888625435e-1
1.622436042e0,1.783188581e-1,-5.221047997e-1,1.400359627e-2,5.518941364e-1
1.632468042e0,-2.855135500e-1,-2.907312810e-1,-5.835614726e-2,4.116407474e-1
1.642500042e0,-8.210320473e-1,-1.306704879e-1,-7.501581311e-2,8.347429372e-1
1.652531333e0,-1.367052555e0,-1.243293136e-1,-1.201415136e-1,1.377942107e0
1.662564333e0,-1.923787117e0,-2.176557928e-1,-1.555125564e-1,1.942296340e0
1.672596333e0,-2.457975388e0,-2.710612714e-1,-1.767257899e-1,2.479183177e0
1.682628333e0,-3.004353046e0,-2.577609122e-1,-2.214083076e-1,3.023507823e0
1.692660333e0,-3.602002621e0,-2.382590324e-1,-2.934827805e-1,3.621784420e0
1.702693333e0,-4.243137836e0,-2.033157051e-1,-3.539724946e-1,4.262728293e0
1.712725333e0,-4.940774441e0,-1.759826839e-1,-3.720603883e-1,4.957887747e0
1.722757333e0,-5.673138618e0,-1.745632142e-1,-3.708385229e-1,5.687925396e0
1.732789333e0,-6.445690155e0,-1.973680705e-1,-3.198459148e-1,6.456638223e0
1.742822333e0,-7.235736847e0,-2.501521707e-1,-2.243758291e-1,7.243535624e0
1.752854333e0,-8.058454514e0,-3.064721823e-1,-1.665676534e-1,8.066000194e0
1.762886333e0,-8.936779976e0,-3.193746507e-1,-1.388939619e-1,8.943563498e0
1.772918333e0,-9.799733162e0,-2.915748954e-1,-1.335414313e-2,9.804078962e0
1.782951333e0,-1.061582184e1,-2.621810734e-1,9.443197399e-2,1.061947878e1
1.792983333e0,-1.140523911e1,-2.507372797e-1,1.273542047e-1,1.140870577e1
1.803015333e0,-1.215897465e1,-2.643883824e-1,1.565384567e-1,1.216285616e1
1.813047333e0,-1.290253258e1,-3.054640591e-1,2.162780762e-1,1.290796000e1
1.823080333e0,-1.356843662e1,-1.989258975e-1,8.891799301e-2,1.357018608e1
1.833112333e0,-1.430614376e1,-5.306063890e-1,1.847156435e-1,1.431717194e1
1.843144333e0,-1.509610653e1,-5.346325636e-1,-9.636209905e-2,1.510587799e1
1.853176333e0,-1.579605770e1,-4.428758919e-1,-1.104062647e-1,1.580265065e1
1.863209333e0,-1.641860962e1,-3.620300591e-1,-6.056308001e-2,1.642271218e1
1.873241333e0,-1.697319221e1,-2.014372647e-1,-2.286313474e-2,1.697440290e1
1.883273333e0,-1.747936440e1,-3.213584796e-2,-6.717227399e-2,1.747952301e1
1.893305333e0,-1.792913055e1,1.475497931e-1,-1.353235394e-1,1.793024835e1
1.903338333e0,-1.829399109e1,3.165891767e-1,-1.465764642e-1,1.829731738e1
1.913370333e0,-1.857022667e1,4.036895335e-1,-1.056344211e-1,1.857491433e1
1.923402333e0,-1.878075409e1,3.885902166e-1,-3.044592589e-2,1.878479847e1
1.933434333e0,-1.892673492e1,1.853824407e-1,1.270804405e-1,1.892806939e1
1.943467333e0,-1.897284508e1,-6.282683462e-2,3.822733462e-1,1.897679979e1
1.953499333e0,-1.890472412e1,-2.947741449e-1,4.383970201e-1,1.891210400e1
1.963531333e0,-1.872643471e1,-5.175496936e-1,3.816136420e-1,1.873747164e1
1.973563333e0,-1.836514473e1,-6.099726558e-1,3.063013256e-1,1.837782436e1
1.983596333e0,-1.780228233e1,-5.723240972e-1,2.286161482e-1,1.781294688e1
1.993628333e0,-1.708231544e1,-4.725202322e-1,2.359617352e-1,1.709047847e1
2.003660333e0,-1.618000031e1,-3.863962889e-1,3.239810765e-1,1.618785581e1
2.013692333e0,-1.508778858e1,-3.435504138e-1,4.346414804e-1,1.509795696e1
2.023725333e0,-1.385330391e1,-3.529066145e-1,4.689562917e-1,1.386573086e1
2.033757333e0,-1.245595074e1,-4.202497900e-1,4.127175510e-1,1.246986986e1
2.043789333e0,-1.095781898e1,-4.566916823e-1,2.312202156e-1,1.096976878e1
2.053821333e0,-9.401788712e0,-4.646672308e-1,-6.718678027e-2,9.413504166e0
2.063854333e0,-7.689410686e0,-3.919914365e-1,-3.012013733e-1,7.705284956e0
2.073886333e0,-5.823851109e0,-2.959153056e-1,-4.436801970e-1,5.848218508e0
2.083918333e0,-3.859977245e0,-2.043164074e-1,-4.822046757e-1,3.895342203e0
2.093950333e0,-1.863007426e0,-1.186696738e-1,-4.681399167e-1,1.924586746e0
2.103983333e0,6.334646046e-2,-8.711148053e-2,-4.001904428e-1,4.144316284e-1
2.114015333e0,1.878897667e0,-1.018847600e-1,-3.053172231e-1,1.906267440e0
2.124047333e0,3.608432770e0,-1.144847050e-1,-1.813872755e-1,3.614802228e0
2.134079333e0,5.206046581e0,-1.365146041e-1,-6.928342581e-2,5.208296980e0
2.144112333e0,6.681077003e0,-1.729802042e-1,8.633206598e-3,6.683321525e0
2.154144333e0,8.013665199e0,-1.880982518e-1,4.090060294e-2,8.015976780e0
2.164176333e0,9.159029961e0,-1.861035377e-1,5.364303291e-2,9.161077552e0
2.174209333e0,1.013419628e1,-1.617018282e-1,3.214909881e-2,1.013553725e1
2.184241333e0,1.096544075e1,-1.533863842e-1,-8.961585350e-3,1.096651716e1
2.194273333e0,1.165728474e1,-1.139818653e-1,-8.156805299e-3,1.165784482e1
2.204305333e0,1.210497665e1,-2.819078974e-2,5.415995140e-3,1.210501069e1
2.214338333e0,1.237184811e1,7.825157046e-2,2.525307424e-2,1.237212135e1
2.224370333e0,1.251604366e1,1.836003661e-1,2.672047727e-2,1.251741875e1
2.234402333e0,1.248651218e1,2.827585340e-1,-3.804897889e-2,1.248977128e1
2.244434333e0,1.231668758e1,3.135643601e-1,-1.240696162e-1,1.232130305e1
2.254467333e0,1.203935242e1,2.629579604e-1,-1.679579169e-1,1.204339501e1
2.264499333e0,1.167435646e1,1.812069118e-1,-1.664122194e-1,1.167694856e1
2.274531333e0,1.122373962e1,1.032777056e-1,-1.377951950e-1,1.122506058e1
2.284563333e0,1.070564079e1,6.109163910e-2,-1.019256264e-1,1.070630029e1
2.294596333e0,1.014147186e1,9.589364380e-2,-1.054350659e-1,1.014247325e1
2.304628333e0,9.513909340e0,2.086587995e-1,-1.135545075e-1,9.516874700e0
2.314660333e0,8.804304123e0,3.247852027e-1,-1.364833564e-1,8.811349739e0
2.324692333e0,8.017125130e0,3.039571345e-1,-1.953344196e-1,8.025262664e0
2.334725333e0,7.124471188e0,1.811013669e-1,-2.445620298e-1,7.130967536e0
2.344757333e0,6.160528660e0,2.695675706e-3,-2.531882524e-1,6.165729878e0
2.354789333e0,5.150489807e0,-1.277790070e-1,-2.116293460e-1,5.156419272e0
2.364821333e0,4.151578903e0,-1.321636289e-1,-1.686786860e-1,4.157105617e0
2.374854333e0,3.160426617e0,-1.081745327e-1,-1.207248420e-1,3.164580954e0
2.384886333e0,2.184474230e0,-7.611273974e-2,-1.473894715e-1,2.190763444e0
2.394918333e0,1.213300705e0,-5.925599486e-2,-1.964285076e-1,1.230525917e0
2.404950333e0,2.489256263e-1,-5.494140834e-2,-2.469942123e-1,3.549488226e-1
2.414983333e0,-6.889379621e-1,-7.154793292e-2,-2.757941186e-1,7.455313663e-1
2.425015333e0,-1.604418993e0,-1.348973513e-1,-3.467817307e-1,1.647001873e0
2.435047333e0,-2.476594448e0,-2.485862076e-1,-3.277692497e-1,2.510527404e0
2.445079333e0,-3.315927744e0,-3.601060510e-1,-3.271751106e-1,3.351432041e0
2.455112333e0,-4.125457764e0,-4.281144738e-1,-3.580820262e-1,4.163040535e0
2.465144333e0,-4.912782192e0,-4.899179339e-1,-4.012449682e-1,4.953427700e0
2.475176333e0,-5.656433105e0,-5.201086402e-1,-4.768405259e-1,5.700274148e0
2.485208333e0,-6.335272789e0,-5.135117173e-1,-5.072402358e-1,6.376258170e0
2.495241333e0,-6.935892105e0,-5.049020648e-1,-5.256567001e-1,6.974083478e0
2.505273333e0,-7.469915867e0,-5.143709183e-1,-5.408574939e-1,7.507113115e0
2.515305333e0,-7.927706718e0,-5.160145760e-1,-5.561810136e-1,7.963927560e0
2.525337333e0,-8.310571671e0,-5.041334033e-1,-5.537287593e-1,8.344241578e0
2.535370333e0,-8.612380981e0,-4.331354201e-1,-4.963653982e-1,8.637539642e0
2.545402333e0,-8.835787773e0,-3.741679788e-1,-4.412715435e-1,8.854708794e0
2.555434333e0,-8.973825455e0,-3.310128152e-1,-3.767997921e-1,8.987830153e0
2.565466333e0,-9.024130821e0,-2.805587053e-1,-3.090495169e-1,9.033778936e0
2.575499333e0,-8.988926888e0,-2.405038625e-1,-2.147277892e-1,8.994707150e0
2.585531333e0,-8.860375404e0,-2.021729946e-1,-1.564937830e-1,8.864063207e0
2.595563333e0,-8.625336647e0,-1.581634432e-1,-1.016958505e-1,8.627386047e0
2.605595333e0,-8.288065910e0,-1.141291410e-1,-4.424294829e-2,8.288969745e0
2.615628333e0,-7.846930027e0,1.379656792e-2,-8.356841654e-2,7.847387137e0
2.625660333e0,-7.414282322e0,5.099480599e-2,8.202081919e-2,7.414911344e0
2.635692333e0,-6.760447979e0,-1.656791940e-2,1.751642227e-1,6.762737159e0
2.645724333e0,-6.013077736e0,-2.109875530e-2,8.735314757e-2,6.013749212e0
2.655758292e0,-5.251741886e0,-9.173694998e-3,-2.342708409e-3,5.251750421e0
2.665790292e0,-4.422003746e0,-4.434100166e-2,-1.128689498e-1,4.423666201e0
2.675822292e0,-3.583830118e0,-4.723738134e-2,-2.538115978e-1,3.593117033e0
2.685855292e0,-2.737756252e0,-1.971573941e-2,-4.254752398e-1,2.770690742e0
2.695887292e0,-1.867863178e0,3.249998018e-2,-4.916557074e-1,1.931759415e0
2.705919292e0,-9.803602099e-1,1.006569341e-1,-4.473047256e-1,1.082275139e0
2.715951292e0,-5.388829485e-2,1.765800714e-1,-3.512969315e-1,3.968551424e-1
2.725983292e0,8.972975016e-1,2.474718243e-1,-2.713970244e-1,9.695573500e-1
2.736016292e0,1.815302372e0,2.465580255e-1,-1.867383569e-1,1.841462673e0
2.746048292e0,2.718496799e0,1.949571371e-1,-1.352522522e-1,2.728832407e0
2.756080292e0,3.559702396e0,1.777062118e-1,-1.494612694e-1,3.567267767e0
2.766113292e0,4.340727806e0,1.741330475e-1,-1.550139487e-1,4.346983958e0
2.776145292e0,5.025964260e0,1.948730052e-1,-1.241582409e-1,5.031272950e0
2.786177292e0,5.608263016e0,2.428573221e-1,-8.484412730e-2,5.614159978e0
2.796209292e0,6.100665092e0,2.756933570e-1,-7.357371598e-2,6.107334483e0
2.806242292e0,6.504772186e0,2.846136093e-1,-7.845635712e-2,6.511468460e0
2.816274292e0,6.857784748e0,2.717413306e-1,-3.048246801e-1,6.869932539e0
2.826306292e0,7.119379520e0,2.258348316e-1,-3.708894551e-1,7.132609979e0
2.836338292e0,7.308349609e0,1.783292443e-1,-4.355066717e-1,7.323485604e0
2.846371292e0,7.461800098e0,1.558601558e-1,-3.912017941e-1,7.473673256e0
2.856403292e0,7.556700706e0,1.747168601e-1,-3.057483733e-1,7.564901428e0
2.866435292e0,7.550723076e0,1.956269294e-1,-1.987140924e-1,7.555870311e0
2.876467292e0,7.454142570e0,2.059073746e-1,-1.037730724e-1,7.457707970e0
2.886500292e0,7.244284153e0,1.922288537e-1,-7.403808087e-2,7.247212323e0
2.896532292e0,6.908346176e0,1.281548142e-1,-5.476896092e-2,6.909751818e0
2.906564292e0,6.510029793e0,2.150400542e-2,-1.263801847e-2,6.510077576e0
2.916596292e0,6.098455906e0,-1.949347742e-2,4.116553068e-2,6.098625995e0
2.926629292e0,5.680675507e0,3.020856343e-2,7.661273330e-2,5.681272417e0
2.936661292e0,5.245777607e0,1.420757025e-1,1.591921896e-1,5.250115271e0
2.946693292e0,4.775380611e0,2.296292633e-1,1.778795868e-1,4.784206385e0
2.956725292e0,4.280504704e0,2.799137533e-1,1.706546396e-1,4.293040325e0
2.966758292e0,3.774882793e0,2.766777575e-1,1.728421599e-1,3.788953035e0
2.976790292e0,3.204953671e0,2.410525829e-1,1.672758460e-1,3.218356038e0
2.986822292e0,2.635686874e0,1.583771408e-1,2.112459689e-1,2.648877777e0
2.996854292e0,2.048549175e0,8.648233861e-2,2.122777104e-1,2.061333244e0
3.006887292e0,1.432745218e0,8.690152317e-2,1.231108159e-1,1.440648121e0
3.016919292e0,7.731997967e-1,1.174894869e-1,9.529270977e-2,7.878593819e-1
3.026951292e0,1.032960042e-1,1.509760618e-1,1.134000793e-1,2.152287474e-1
3.036983292e0,-5.604524016e-1,1.333304942e-1,1.304224730e-1,5.906724444e-1
3.047016292e0,-1.205308318e0,8.706819266e-2,1.933862567e-1,1.223824847e0
3.057048292e0,-1.824098110e0,1.183381863e-2,2.258504182e-1,1.838064843e0
3.067080292e0,-2.421390533e0,-6.796007603e-2,2.148126811e-1,2.431850155e0
3.077112292e0,-3.012083292e0,-1.195489094e-1,1.790878922e-1,3.019769887e0
3.087145292e0,-3.573900938e0,-1.144092754e-1,1.718675345e-1,3.579859752e0
3.097177292e0,-4.094275951e0,-7.540932298e-2,1.765736043e-1,4.098775472e0
3.107209292e0,-4.577593327e0,-3.027300350e-2,2.009764165e-1,4.582103080e0
3.117241292e0,-5.021883965e0,-1.056017540e-2,2.170192599e-1,5.026582082e0
3.127274292e0,-5.410939693e0,-3.555660695e-2,2.152943313e-1,5.415337874e0
3.137306292e0,-5.746312618e0,-8.438139409e-2,1.824037284e-1,5.749826088e0
3.147338292e0,-6.041483879e0,-1.394281387e-1,1.346266121e-1,6.044591962e0
3.157370292e0,-6.274108887e0,-1.898947060e-1,1.166219711e-1,6.278065228e0
3.167403292e0,-6.420727253e0,-2.127347738e-1,1.346307993e-1,6.425661055e0
3.177435292e0,-6.504931927e0,-2.032056749e-1,1.491056681e-1,6.509812933e0
3.187467292e0,-6.520301342e0,-1.809544265e-1,1.703030914e-1,6.525034654e0
3.197499292e0,-6.465500355e0,-1.699905694e-1,1.802964061e-1,6.470247169e0
3.207532292e0,-6.337421894e0,-1.682158411e-1,1.806434095e-1,6.342227123e0
3.217564292e0,-6.148837090e0,-1.726809889e-1,1.637488157e-1,6.153440497e0
3.227596292e0,-5.899121284e0,-1.715850979e-1,1.424528509e-1,5.903335175e0
3.237629292e0,-5.581296921e0,-1.589848399e-1,1.316911131e-1,5.585113611e0
3.247661292e0,-5.202129841e0,-1.284903139e-1,1.340695769e-1,5.205443237e0
3.257693292e0,-4.774931431e0,-7.889695466e-2,1.517439336e-1,4.777993420e0
3.267725292e0,-4.309737682e0,-3.303492814e-2,1.542076319e-1,4.312622194e0
3.277758292e0,-3.822066069e0,-1.774050854e-2,1.121186763e-1,3.823751346e0
3.287790292e0,-3.289847374e0,-3.472482041e-2,5.695023388e-2,3.290523497e0
3.297822292e0,-2.739013910e0,-6.636101753e-2,1.647574827e-2,2.739867230e0
3.307854292e0,-2.185830593e0,-8.252267540e-2,-1.167093404e-2,2.187418932e0
3.317887292e0,-1.595402837e0,-1.145997941e-1,3.258941323e-2,1.599845428e0
3.327919292e0,-1.019832015e0,-9.599362314e-2,3.266291693e-2,1.024860469e0
3.337951292e0,-4.411212504e-1,-1.251984984e-1,5.194932222e-2,4.614773598e-1
3.347983292e0,1.972437948e-1,-1.630878150e-1,8.976887167e-2,2.712216811e-1
3.358016292e0,8.388791680e-1,-1.682362407e-1,1.279129088e-1,8.650915579e-1
3.368048292e0,1.488317728e0,-1.557966173e-1,2.050170153e-1,1.510428490e0
3.378080292e0,2.122788668e0,-1.300735176e-1,2.710955441e-1,2.143978461e0
3.388112292e0,2.716279268e0,-1.146199927e-1,2.917672694e-1,2.734307763e0
3.398145292e0,3.257724524e0,-1.143324152e-1,2.700131536e-1,3.270894079e0
3.408177292e0,3.735437393e0,-1.190619245e-1,2.190298587e-1,3.743747099e0
3.418209292e0,4.150465488e0,-1.268837452e-1,1.426693350e-1,4.154854726e0
3.428241292e0,4.486794949e0,-1.239324212e-1,8.056655526e-2,4.489229235e0
3.438274292e0,4.736395836e0,-8.654266596e-2,3.742503375e-2,4.737334248e0
3.448306292e0,4.919678688e0,-3.786594421e-2,3.747749701e-2,4.919967153e0
3.458338292e0,5.029615402e0,3.265623748e-2,5.923300609e-2,5.030070186e0
3.468370292e0,5.065519333e0,1.163226366e-1,9.652684629e-2,5.067774117e0
3.478403292e0,5.036431313e0,1.665254384e-1,1.153648645e-1,5.040503957e0
3.488435292e0,4.953861713e0,1.807626933e-1,1.047404483e-1,4.958264978e0
3.498467292e0,4.811437130e0,1.589402854e-1,7.223873585e-2,4.814603588e0
3.508499292e0,4.620425224e0,1.125179306e-1,2.953041717e-2,4.621889395e0
3.518532292e0,4.376759052e0,8.243831992e-2,-6.036524661e-3,4.377539528e0
3.528564292e0,4.089373112e0,7.761055231e-2,-1.591445506e-2,4.090140476e0
3.538596292e0,3.752043962e0,1.014964283e-1,-3.256410826e-3,3.753417912e0
3.548628292e0,3.374596119e0,1.420534551e-1,2.000284009e-2,3.377643892e0
3.558661292e0,2.959032774e0,1.512001902e-1,3.624380007e-2,2.963114927e0
3.568693292e0,2.504547119e0,1.171697900e-1,3.034942597e-2,2.507470063e0
3.578725292e0,2.022555113e0,4.305842146e-2,1.249538828e-2,2.023051988e0
3.588757292e0,1.517909646e0,-7.607170194e-2,-6.087350659e-3,1.519826850e0
3.598790292e0,9.933856726e-1,-2.075218558e-1,-1.251557004e-2,1.014907412e0
3.608822292e0,4.709744155e-1,-2.853338420e-1,5.970230326e-3,5.506976894e-1
3.618854292e0,-5.565157160e-2,-2.957145572e-1,2.461049333e-2,3.019103727e-1
3.628886292e0,-5.829140544e-1,-2.430641353e-1,3.288333863e-2,6.324162258e-1
3.638919292e0,-1.123166442e0,-1.626430005e-1,5.395761132e-2,1.136163292e0
3.648950667e0,-1.660152912e0,-7.120095938e-2,8.671795577e-2,1.663940285e0
3.658982667e0,-2.190741539e0,-2.108516637e-3,1.225876585e-1,2.194169700e0
3.669014667e0,-2.720810413e0,2.125246637e-2,1.009270996e-1,2.722764634e0
3.679047667e0,-3.250133991e0,3.210566472e-3,6.626226753e-2,3.250810969e0
3.689079667e0,-3.735648155e0,-8.623190224e-3,4.817274958e-2,3.735968698e0
3.699111667e0,-4.166928768e0,-1.987625845e-2,3.683230281e-2,4.167138952e0
3.709144667e0,-4.542647839e0,-5.365225952e-3,5.064691603e-2,4.542933334e0
3.719176667e0,-4.870703220e0,2.342616953e-2,1.007548869e-1,4.871801535e0
3.729208667e0,-5.150508404e0,3.577870876e-2,1.429678500e-1,5.152616495e0
3.739240667e0,-5.386771679e0,3.624831140e-2,1.528016925e-1,5.389060346e0
3.749273667e0,-5.575264931e0,1.912045665e-2,1.642045379e-1,5.577715282e0
3.759305667e0,-5.716530800e0,-3.120220732e-3,1.616294235e-1,5.718816153e0
3.769337667e0,-5.798894882e0,-2.587320283e-2,1.650044471e-1,5.801299660e0
3.779369667e0,-5.833481789e0,-3.565624729e-2,1.477454454e-1,5.835461410e0
3.789402667e0,-5.815099239e0,-3.487833589e-2,1.167483851e-1,5.816375662e0
3.799434667e0,-5.749140739e0,-1.240227930e-2,8.295984566e-2,5.749752638e0
3.809466667e0,-5.641077518e0,1.921583526e-2,4.963917658e-2,5.641328644e0
3.819498667e0,-5.480368137e0,4.674720392e-2,7.544512860e-3,5.480572702e0
3.829531667e0,-5.292930603e0,5.974662676e-2,-1.525001507e-2,5.293289770e0
3.839563667e0,-5.085365295e0,8.442394435e-2,-3.219760209e-2,5.086167936e0
3.849595667e0,-4.833107471e0,1.082179546e-1,-9.208397008e-3,4.834327642e0
3.859627667e0,-4.589302540e0,1.499349624e-1,2.633999800e-3,4.591751870e0
3.869660667e0,-4.266551018e0,1.530513912e-1,-1.034970954e-2,4.269307840e0
3.879692667e0,-3.900776625e0,1.453354955e-1,-8.272712119e-3,3.903491914e0
3.889724667e0,-3.539570332e0,1.352003068e-1,4.993824288e-3,3.542155021e0
3.899756667e0,-3.290993929e0,1.422493458e-1,2.071831189e-2,3.294131929e0
3.909789667e0,-2.995277643e0,3.051591516e-1,-4.591572098e-3,3.010785836e0
3.919821667e0,-2.627011299e0,2.577178776e-1,-4.565359093e-3,2.639626434e0
3.929853667e0,-2.367307186e0,2.206834406e-1,-2.613794757e-3,2.377572570e0
3.939885667e0,-2.131056070e0,2.982170582e-1,2.363215433e-3,2.151822245e0
3.949918667e0,-1.890426517e0,4.534950852e-1,2.571620792e-2,1.944230318e0
3.959950667e0,-1.587728500e0,5.901247859e-1,1.147474572e-1,1.697732615e0
3.969982667e0,-1.171061277e0,7.015378475e-1,2.113336474e-1,1.381376769e0
3.980014667e0,-6.158925295e-1,7.617591619e-1,3.348862827e-1,1.035253327e0
3.990047667e0,7.965085655e-2,7.188258171e-1,4.773195982e-1,8.665384083e-1
4.000079667e0,8.215292692e-1,5.439984798e-1,5.102612972e-1,1.109599602e0
4.010111667e0,1.611819863e0,3.892275095e-1,4.618495405e-1,1.721268812e0
4.020143667e0,2.536981583e0,2.577117682e-1,4.208813012e-1,2.584537091e0
4.030176667e0,3.623304844e0,1.426386982e-1,4.982426763e-1,3.660181629e0
4.040208667e0,4.781985760e0,1.387542635e-1,5.780400038e-1,4.818793500e0
4.050240667e0,5.975419998e0,1.815160960e-1,6.450864077e-1,6.012880235e0
4.060273667e0,7.019496441e0,2.042569071e-1,7.160284519e-1,7.058877242e0
4.070305667e0,7.740853786e0,1.837497652e-1,7.676349282e-1,7.780992527e0
4.080337667e0,8.425279617e0,6.267319620e-2,8.391358256e-1,8.467196318e0
4.090369667e0,9.328378677e0,-8.432610333e-2,8.013823628e-1,9.363117714e0
4.100402667e0,1.048603821e1,-3.041362576e-2,9.563542604e-1,1.052960283e1
4.110434667e0,1.199787235e1,5.275449529e-2,1.277626872e0,1.206582175e1
4.120466667e0,1.422005081e1,2.009291351e-1,1.381968021e0,1.428845874e1
4.130498667e0,1.729676247e1,2.873846292e-1,1.962543488e0,1.741011656e1
4.140531667e0,2.122779846e1,5.807911754e-1,2.332009554e0,2.136340363e1
4.150563667e0,2.518582535e1,1.368510246e0,2.380390406e0,2.533505234e1
4.160595667e0,2.921948624e1,1.811288357e0,2.936222553e0,2.942244967e1
4.170627667e0,3.189199066e1,-6.401628852e-1,4.107858181e0,3.216183104e1
4.180660667e0,3.283969498e1,9.034696817e-1,4.930439472e0,3.322003999e1
4.190692667e0,3.255667496e1,2.245097876e0,5.625409603e0,3.311529529e1
4.200724667e0,3.183511734e1,3.594224453e0,5.919127941e0,3.257958289e1
4.210756667e0,3.198959160e1,5.190899849e0,6.081333160e0,3.297365653e1
4.220789667e0,3.165357208e1,6.863783360e0,6.117135525e0,3.296178840e1
4.230821667e0,3.089948654e1,8.305734634e0,6.335459232e0,3.261750358e1
4.240853667e0,3.049365807e1,9.829065323e0,6.278344154e0,3.264799094e1
4.250885667e0,2.976563072e1,1.141433525e1,6.336276054e0,3.250274166e1
4.260918667e0,2.885845757e1,1.283559036e1,6.425850868e0,3.223126607e1
4.270950667e0,2.801674461e1,1.428286362e1,6.300639153e0,3.207235921e1
4.280982667e0,2.700074768e1,1.577044678e1,6.236783504e0,3.188486844e1
4.291014667e0,2.593556404e1,1.722250366e1,6.233048439e0,3.175088987e1
4.301047667e0,2.479735184e1,1.863519096e1,6.217133522e0,3.163592498e1
4.311079667e0,2.354890823e1,1.997129250e1,6.272247314e0,3.150785123e1
4.321111667e0,2.221578217e1,2.122859764e1,6.279088974e0,3.136273734e1
4.331143667e0,2.079315758e1,2.244643784e1,6.226058006e0,3.122437785e1
4.341176667e0,1.929998207e1,2.362891197e1,6.238465786e0,3.114054021e1
4.351208667e0,1.772606659e1,2.473851776e1,6.306101799e0,3.108013220e1
4.361240667e0,1.606499481e1,2.575699997e1,6.383249283e0,3.102020273e1
4.371273667e0,1.432779312e1,2.668760681e1,6.473754406e0,3.097456229e1
4.381305667e0,1.249730492e1,2.751228714e1,6.574552536e0,3.092463928e1
4.391337667e0,1.059229946e1,2.823613739e1,6.680082321e0,3.088850534e1
4.401369667e0,8.610279083e0,2.883263588e1,6.788931847e0,3.084716183e1
4.411402667e0,6.564289093e0,2.930526161e1,6.903358459e0,3.081468169e1
4.421434667e0,4.457075119e0,2.963533783e1,7.013322830e0,3.077832783e1
4.431466667e0,2.302410841e0,2.981857109e1,7.121870041e0,3.074360601e1
4.441498667e0,1.079855636e-1,2.984464645e1,7.222335339e0,3.070629757e1
4.451531667e0,-2.107701778e0,2.971636391e1,7.255512714e0,3.066181918e1
4.461563667e0,-4.276343346e0,2.939708328e1,7.142857075e0,3.055316719e1
4.471595667e0,-6.407140255e0,2.888132095e1,7.083045959e0,3.041959379e1
4.481627667e0,-8.488563538e0,2.813591385e1,6.816113949e0,3.016860568e1
4.491660667e0,-1.039163589e1,2.718434334e1,6.698565483e0,2.986378072e1
4.501692667e0,-1.219621563e1,2.609964752e1,6.744766235e0,2.958768575e1
4.511724667e0,-1.396575069e1,2.494033623e1,6.857380867e0,2.939534378e1
4.521756667e0,-1.567660618e1,2.372732925e1,6.896269321e0,2.926261549e1
4.531789667e0,-1.728916931e1,2.244364357e1,6.857380867e0,2.914886249e1
4.541821667e0,-1.878367615e1,2.107762527e1,6.821446419e0,2.904522178e1
4.551853667e0,-2.017506027e1,1.965127945e1,6.818041801e0,2.897743148e1
4.561886667e0,-2.145418930e1,1.816216850e1,6.844362259e0,2.893081226e1
4.571918667e0,-2.264297676e1,1.663175201e1,6.901121616e0,2.893000261e1
4.581950667e0,-2.371735382e1,1.503488064e1,6.944497108e0,2.892726306e1
4.591982667e0,-2.469834328e1,1.337396240e1,7.014760971e0,2.894957517e1
4.602015667e0,-2.556036949e1,1.163496780e1,7.115216255e0,2.897121445e1
4.612047667e0,-2.630748367e1,9.823600769e0,7.241811752e0,2.900052873e1
4.622079667e0,-2.691916466e1,7.939041138e0,7.393268585e0,2.902292577e1
4.632111667e0,-2.739138222e1,5.988667011e0,7.566349506e0,2.904137733e1
4.642144667e0,-2.770832062e1,3.961993217e0,7.754544258e0,2.904447242e1
4.652176792e0,-2.786997223e1,1.876061440e0,7.956764698e0,2.904419155e1
4.662208792e0,-2.786745644e1,-2.635922134e-1,8.169080734e0,2.904132382e1
4.672240792e0,-2.769544029e1,-2.450543880e0,8.384117126e0,2.904024790e1
4.682273792e0,-2.733726501e1,-4.666872978e0,8.601557732e0,2.903605616e1
4.692305792e0,-2.678193665e1,-6.878229141e0,8.858500481e0,2.903541282e1
4.702337792e0,-2.602146721e1,-8.949910164e0,9.337642670e0,2.905872018e1
4.712369792e0,-2.501803970e1,-1.069624138e1,9.857461929e0,2.893927169e1
4.722402792e0,-2.383835411e1,-1.223191833e1,9.967360497e0,2.858732636e1
4.732434792e0,-2.252300072e1,-1.379795647e1,9.752846718e0,2.815647675e1
4.742466792e0,-2.108571434e1,-1.548723793e1,9.434924126e0,2.781150268e1
4.752498792e0,-1.951007080e1,-1.719873428e1,9.420219421e0,2.766188456e1
4.762531792e0,-1.780805588e1,-1.878185081e1,9.447861671e0,2.755261992e1
4.772563792e0,-1.596774960e1,-2.022894287e1,9.465794563e0,2.745506189e1
4.782595792e0,-1.400588036e1,-2.152631187e1,9.489740372e0,2.737885972e1
4.792628792e0,-1.194782829e1,-2.265928459e1,9.523658752e0,2.732935885e1
4.802660792e0,-9.794881821e0,-2.360478210e1,9.531973839e0,2.727606961e1
4.812692792e0,-7.580381870e0,-2.433915520e1,9.528699875e0,2.721493682e1
4.822724792e0,-5.323073387e0,-2.485731125e1,9.519414902e0,2.714480232e1
4.832757792e0,-3.040763378e0,-2.515234756e1,9.505537033e0,2.705997162e1
4.842789792e0,-7.556394935e-1,-2.523183250e1,9.483169556e0,2.696566089e1
4.852821792e0,1.523711801e0,-2.510760117e1,9.458301544e0,2.687327301e1
4.862853792e0,3.795605898e0,-2.478633690e1,9.428723335e0,2.678936253e1
4.872886792e0,6.034853458e0,-2.428318787e1,9.395880699e0,2.672779907e1
4.882918792e0,8.213661194e0,-2.360272217e1,9.362644196e0,2.668729717e1
4.892950792e0,1.032324791e1,-2.275329781e1,9.280316353e0,2.665344781e1
4.902982792e0,1.230790901e1,-2.170353127e1,9.105451584e0,2.656006668e1
4.913015792e0,1.412586212e1,-2.045510864e1,8.878026009e0,2.639641635e1
4.923047792e0,1.571536827e1,-1.896174049e1,8.676861763e0,2.611145979e1
4.933079792e0,1.719918823e1,-1.731466866e1,8.727311134e0,2.591863781e1
4.943111792e0,1.854695892e1,-1.562298107e1,8.932868958e0,2.584305266e1
4.953144792e0,1.973131371e1,-1.392426014e1,9.012639046e0,2.577668372e1
4.963176792e0,2.075726700e1,-1.216145039e1,9.014431000e0,2.569095123e1
4.973208792e0,2.165090179e1,-1.031266022e1,9.019265175e0,2.562146861e1
4.983240792e0,2.240711021e1,-8.395708084e0,9.045296669e0,2.558092833e1
4.993273792e0,2.304090500e1,-6.428009033e0,9.078983307e0,2.558574879e1
5.003305792e0,2.350895882e1,-4.429327011e0,9.128434181e0,2.560504624e1
5.013337792e0,2.380938530e1,-2.416135073e0,9.190661430e0,2.563577178e1
5.023370792e0,2.391301727e1,-3.856199682e-1,9.260268211e0,2.564631875e1
5.033402792e0,2.381553841e1,1.650338411e0,9.335993767e0,2.563326483e1
5.043434792e0,2.351334000e1,3.680704594e0,9.413360596e0,2.559367308e1
5.053466792e0,2.301532936e1,5.704056740e0,9.488648415e0,2.553969651e1
5.063499792e0,2.231495667e1,7.694398403e0,9.549738884e0,2.546288614e1
5.073531792e0,2.142654610e1,9.656036377e0,9.616278648e0,2.539308432e1
5.083563792e0,2.034080696e1,1.154199219e1,9.751856804e0,2.533899609e1
5.093595792e0,1.907686424e1,1.327330875e1,9.874027252e0,2.525081957e1
5.103628792e0,1.770375443e1,1.489020443e1,9.857104301e0,2.514564801e1
5.113660792e0,1.621388435e1,1.640446854e1,9.781863213e0,2.505357223e1
5.123692792e0,1.462150002e1,1.778199196e1,9.698551178e0,2.498098068e1
5.133724792e0,1.294151306e1,1.898912239e1,9.632611275e0,2.491699680e1
5.143757792e0,1.557406044e1,1.582444954e1,9.173933029e0,2.402343874e1
5.153789792e0,2.914519882e1,-1.477055836e1,7.255700588e0,3.347024349e1
5.163821792e0,2.135601997e1,-2.914353943e1,-1.795846581e0,3.617527532e1
5.173853792e0,5.375862122e-1,1.548208475e0,1.086771011e0,1.966473913e0
5.183886792e0,-4.931467056e0,1.558090329e0,2.014298677e0,5.550172246e0
5.193918792e0,-5.959694862e0,2.040910006e0,5.070406795e-1,6.319839140e0
5.203950792e0,-6.040311813e0,1.197245479e0,6.264591217e-1,6.189605365e0
5.213983792e0,-6.078320026e0,1.007782102e0,1.578026175e0,6.360170259e0
5.224015792e0,-6.059253216e0,9.268209338e-1,1.517457128e0,6.314762285e0
5.234047792e0,-6.040637970e0,8.607785702e-1,1.505202889e0,6.284574971e0
5.244079792e0,-6.066468239e0,7.962282300e-1,1.520937204e0,6.304701917e0
5.254112792e0,-6.042280197e0,7.327113152e-1,1.514820218e0,6.272216207e0
5.264144792e0,-6.057002068e0,6.591758132e-1,1.516689181e0,6.278704713e0
5.274176792e0,-6.054553032e0,5.789694190e-1,1.522740126e0,6.269892782e0
5.284208792e0,-6.054194450e0,4.949296117e-1,1.525626898e0,6.263047437e0
5.294241792e0,-6.070222378e0,4.084764719e-1,1.524906278e0,6.272144123e0
5.304273792e0,-6.073529720e0,3.171980679e-1,1.524466634e0,6.269958245e0
5.314305792e0,-6.085512638e0,2.242420167e-1,1.527069569e0,6.278191620e0
5.324337792e0,-6.088218212e0,1.354965866e-1,1.531361461e0,6.279317498e0
5.334370792e0,-6.095775127e0,4.537256062e-2,1.533417702e0,6.285849419e0
5.344402792e0,-6.099602699e0,-4.608169571e-2,1.537025332e0,6.290447002e0
5.354434792e0,-6.096656799e0,-1.362512708e-1,1.536684752e0,6.288814559e0
5.364466792e0,-6.095470428e0,-2.273298204e-1,1.540961981e0,6.291343451e0
5.374499792e0,-6.089239597e0,-3.187034130e-1,1.542423844e0,6.289632903e0
5.384531792e0,-6.081057072e0,-4.053222537e-1,1.545848489e0,6.287542349e0
5.394563792e0,-6.069986820e0,-4.943695664e-1,1.549112439e0,6.284018668e0
5.404595792e0,-6.059529305e0,-5.829278231e-1,1.551522970e0,6.282111410e0
5.414628792e0,-6.047027588e0,-6.712208986e-1,1.556032538e0,6.279993424e0
5.424660792e0,-6.032202244e0,-7.623399496e-1,1.557909489e0,6.276600042e0
5.434692792e0,-6.013541698e0,-8.529398441e-1,1.563712001e0,6.271792834e0
5.444724792e0,-5.999862194e0,-9.427457452e-1,1.567417383e0,6.272472650e0
5.454757792e0,-5.979888439e0,-1.033997893e0,1.569487214e0,6.268293827e0
5.464789792e0,-5.963169575e0,-1.124348402e0,1.575404644e0,6.269405913e0
5.474821792e0,-5.943866730e0,-1.215278864e0,1.576383352e0,6.268288354e0
5.484854792e0,-5.921567917e0,-1.305806637e0,1.581832886e0,6.266760953e0
5.494886792e0,-5.896925449e0,-1.397118211e0,1.585332274e0,6.264099893e0
5.504918792e0,-5.871747971e0,-1.486253381e0,1.587168336e0,6.261427686e0
5.514950792e0,-5.845253468e0,-1.571532845e0,1.589494824e0,6.258050606e0
5.524983792e0,-5.816778183e0,-1.658382177e0,1.595671058e0,6.255502058e0
5.535015792e0,-5.788888931e0,-1.746600509e0,1.596243143e0,6.253786099e0
5.545047792e0,-5.760593414e0,-1.832544088e0,1.598820448e0,6.252909814e0
5.555079792e0,-5.727531433e0,-1.917370796e0,1.602668524e0,6.248957792e0
5.565112792e0,-5.696954250e0,-2.000299454e0,1.604001284e0,6.247343896e0
5.575144792e0,-5.666374683e0,-2.083874226e0,1.608266234e0,6.247947993e0
5.585176792e0,-5.633044243e0,-2.165520668e0,1.611649275e0,6.246445436e0
5.595208792e0,-5.597553253e0,-2.247020006e0,1.614014268e0,6.243936530e0
5.605241792e0,-5.559830189e0,-2.327258110e0,1.617789626e0,6.240599756e0
5.615273792e0,-5.525200367e0,-2.402171612e0,1.617562532e0,6.238170893e0
5.625305792e0,-5.487504005e0,-2.478835106e0,1.624078989e0,6.236582097e0
5.635337792e0,-5.449025631e0,-2.552573919e0,1.626363397e0,6.233183122e0
5.645370792e0,-5.406632423e0,-2.622352123e0,1.629865050e0,6.226143662e0
5.655402792e0,-5.367996693e0,-2.693089962e0,1.633145809e0,6.223767932e0
5.665434792e0,-5.322810173e0,-2.761057854e0,1.637860417e0,6.215974208e0
5.675466792e0,-5.277252197e0,-2.828637123e0,1.639454842e0,6.207929679e0
5.685499792e0,-5.232302189e0,-2.698013306e0,1.605305195e0,6.101906814e0
5.695531792e0,-4.888821602e0,2.001639843e0,2.911814451e-1,5.290739584e0
5.705563792e0,-4.444621563e0,5.591692924e0,-1.310068727e0,7.262091343e0
5.715596792e0,-3.906046391e0,7.660133839e0,-3.086812019e0,9.135822748e0
5.725628792e0,-2.853590727e0,1.040753365e1,-5.790874958e0,1.224720251e1
5.735660792e0,-1.663472772e0,1.107323837e1,-7.737110615e0,1.361053380e1
5.745692792e0,-6.800512671e-1,1.281530571e1,-7.218377590e0,1.472411305e1
5.755725792e0,-2.312523365e0,1.592538357e1,-6.409200668e0,1.732176259e1
5.765757792e0,-8.268066406e0,1.874442863e1,-8.441779137e0,2.215802703e1
5.775789792e0,-1.484807301e1,5.049549103e0,-9.864454269e0,1.852756531e1
5.785821792e0,-1.581523895e1,-5.706704140e0,-6.467330933e0,1.801428946e1
5.795854792e0,-1.252173901e1,-3.240385532e0,1.049889803e0,1.297676056e1
5.805886792e0,-6.987801075e0,-3.564802408e-1,4.463038445e0,8.299105625e0
5.815918792e0,-3.239748478e0,6.315903068e-1,3.146799564e0,4.560397353e0
5.825950792e0,-1.708337784e0,4.989980161e-1,4.461011887e-1,1.834781533e0
5.835983792e0,-1.275301337e0,4.080769122e-1,-1.670949936e0,2.141259899e0
5.846015792e0,-1.203848958e0,-5.200383663e-1,-2.481829643e0,2.806986034e0
5.856047792e0,-1.365286589e0,-1.611681104e0,-2.466480017e0,3.247313832e0
5.866079792e0,-1.671960592e0,-1.911705852e0,-2.289903164e0,3.419609332e0
5.876112792e0,-2.145994902e0,-1.999571204e0,-2.201947451e0,3.667717505e0
5.886144792e0,-2.548969984e0,-1.996375680e0,-2.186437607e0,3.906823933e0
5.896176792e0,-2.949139595e0,-1.675019145e0,-2.158259392e0,4.020099139e0
5.906209792e0,-3.212368727e0,-1.114015698e0,-1.983841300e0,3.936492108e0
5.916241792e0,-3.158520222e0,-4.538975060e-1,-1.648412347e0,3.591592433e0
5.926273792e0,-2.516106606e0,5.178933144e-1,-1.141449332e0,2.811034065e0
5.936305792e0,-1.175879598e0,1.610331535e0,-4.161030054e-1,2.036909962e0
5.946338792e0,8.238997459e-1,2.248358727e0,3.553338051e-1,2.420782904e0
5.956370792e0,3.206052780e0,2.533411741e0,9.427378774e-1,4.193531231e0
5.966402792e0,5.442557812e0,2.779290199e0,1.332157016e0,6.254640826e0
5.976434792e0,7.058538437e0,2.273249388e0,1.326295376e0,7.533238817e0
5.986467792e0,7.927826881e0,8.018664718e-1,8.349832892e-1,8.011905266e0
5.996499792e0,8.385888100e0,3.314188682e-3,1.737158448e-1,8.387687846e0
6.006531792e0,8.740684509e0,-2.246002853e-2,-1.408537179e-1,8.741848198e0
6.016563792e0,9.090510368e0,3.205716312e-1,-1.589373797e-1,9.097549451e0
6.026596792e0,9.226251602e0,4.909404516e-1,7.769072801e-2,9.239630783e0
6.036628792e0,7.307394981e0,4.126861095e-1,1.451869458e-1,7.320478843e0
6.046660792e0,3.705601215e0,1.077516526e-1,1.093712151e-1,3.708780507e0
6.056692792e0,5.394810438e-1,-1.067920774e-1,2.960406840e-1,6.245673951e-1
6.066725792e0,-8.264790773e-1,-2.257695496e-1,4.399474561e-1,9.631164618e-1
6.076757792e0,-1.308302641e0,-2.302646935e-1,3.048197329e-1,1.362935325e0
6.086789792e0,-1.443006158e0,-9.355696291e-2,9.152590483e-2,1.448929490e0
6.096822792e0,-1.438840747e0,6.690195203e-2,-4.914306477e-2,1.441233363e0
6.106854792e0,-1.367371082e0,7.153782248e-2,-8.930090070e-2,1.372150133e0
6.116886792e0,-1.276614785e0,4.407317191e-2,-4.724692553e-2,1.278248812e0
6.126918792e0,-1.255297303e0,3.700973839e-2,3.634296358e-2,1.256368517e0
6.136951792e0,-1.353058457e0,1.274914108e-2,8.973454684e-2,1.356090712e0
6.146983792e0,-1.602010250e0,-6.189132482e-2,8.558954298e-2,1.605488383e0
6.157015792e0,-1.865358233e0,-1.244585663e-1,2.631130442e-2,1.869690765e0
6.167047792e0,-1.880049825e0,-1.291163564e-1,-2.585747652e-2,1.884655668e0
6.177080792e0,-1.589290619e0,-6.291522831e-2,-3.026740439e-2,1.590823407e0
6.187112792e0,-1.204679370e0,-6.412474439e-3,-2.696505934e-2,1.204998182e0
6.197144792e0,-8.821388483e-1,7.266852073e-3,-5.275697634e-2,8.837449029e-1
6.207176792e0,-6.371562481e-1,1.322631165e-2,-6.644459069e-2,6.407479250e-1
6.217209792e0,-4.372974932e-1,1.303829253e-2,-4.414886981e-2,4.397137903e-1
6.227241792e0,-2.388365865e-1,4.309919197e-3,7.542233914e-3,2.389945098e-1
6.237273792e0,-2.095245197e-2,2.760293428e-4,5.906561390e-2,6.267238771e-2
6.247305792e0,2.428365797e-1,-5.176767707e-3,7.779038697e-2,2.550445994e-1
6.257338792e0,5.541912913e-1,-2.953294432e-3,6.400852650e-2,5.578833219e-1
6.267370792e0,9.200565815e-1,9.375257418e-3,3.763218224e-2,9.208736014e-1
6.277402792e0,1.323875427e0,3.625800088e-2,1.105117332e-2,1.324417954e0
6.287434792e0,1.714180112e0,7.008270919e-2,-1.421207003e-2,1.715671013e0
6.297467792e0,1.898413658e0,1.066535041e-1,-3.794988990e-2,1.901785893e0
6.307499792e0,1.717575550e0,1.133174524e-1,-4.198366404e-2,1.721821490e0
6.317531792e0,1.182336092e0,7.801724970e-2,-2.503930219e-2,1.185171841e0
6.327564792e0,5.158193707e-1,3.903684765e-2,2.894985955e-3,5.173025030e-1
6.337596792e0,-2.464199625e-2,9.780691005e-3,2.228253335e-2,3.463237197e-2
6.347628792e0,-3.224532008e-1,-2.567400225e-4,2.379289456e-2,3.233299158e-1
6.357660792e0,-4.335632026e-1,-8.342363872e-3,1.143849082e-2,4.337942885e-1
6.367693792e0,-4.353184998e-1,-2.374307625e-2,1.373002399e-2,4.361816634e-1
6.377725792e0,-3.942738473e-1,-3.841416538e-2,1.900095306e-2,3.965962065e-1
6.387757792e0,-3.621390760e-1,-4.778083041e-2,1.235527545e-2,3.654864853e-1
6.397789792e0,-3.463859260e-1,-4.304679483e-2,-1.238564728e-3,3.490526756e-1
6.407822792e0,-3.208566308e-1,-2.807837352e-2,-1.322859991e-2,3.223544143e-1
6.417854792e0,-2.608385682e-1,-1.205333509e-2,-1.870618761e-2,2.617861016e-1
6.427886792e0,-1.690007895e-1,3.299071454e-3,-1.838486269e-2,1.700298618e-1
6.437918792e0,-6.901399046e-2,1.634722948e-2,-1.578561589e-2,7.265912510e-2
6.447951792e0,3.219731897e-2,2.095981687e-2,-5.048244260e-3,3.874875537e-2
6.457983792e0,1.305294931e-1,1.863008365e-2,8.202580735e-3,1.321071948e-1
6.468015792e0,2.096884847e-1,6.499757059e-3,1.551638823e-2,2.103622251e-1
6.478048792e0,2.504124641e-1,-1.189587987e-3,1.947358064e-2,2.511713313e-1
6.488080792e0,2.400905937e-1,-9.088644758e-3,1.678662561e-2,2.408482664e-1
6.498112792e0,1.881094128e-1,-8.276913315e-3,1.403557975e-2,1.888138130e-1
6.508144792e0,1.089594588e-1,-9.230101481e-3,7.322028279e-3,1.095945734e-1
6.518177792e0,2.074464411e-2,2.037999220e-3,-8.185824379e-3,2.239422740e-2
6.528209792e0,-4.722560197e-2,1.243182831e-2,-1.868907735e-2,5.228852119e-2
6.538241792e0,-9.429910779e-2,2.017283812e-2,-1.935486682e-2,9.835586407e-2
6.548273792e0,-1.248748675e-1,1.910181902e-2,-1.536228880e-2,1.272580526e-1
6.558306792e0,-1.461487263e-1,5.474689417e-3,-3.735726932e-3,1.462989340e-1
6.568338792e0,-1.542335451e-1,-9.090404026e-3,1.180941053e-2,1.549518765e-1
6.578370792e0,-1.393691152e-1,-2.805930190e-2,1.851391792e-2,1.433661043e-1
6.588402792e0,-8.881033212e-2,-2.628981508e-2,1.399654802e-2,9.367140879e-2
6.598435792e0,-1.396112517e-2,-1.442037337e-2,-2.319226041e-4,2.007271710e-2
6.608467792e0,7.969079912e-2,-1.499248785e-3,-6.119905971e-3,7.993950500e-2
6.618499792e0,1.571602821e-1,1.105515938e-2,-3.476451850e-3,1.575869809e-1
6.628531792e0,1.882710755e-1,2.759619616e-2,-6.156748626e-3,1.903823875e-1
6.638564792e0,1.650834680e-1,2.549629286e-2,6.971624680e-4,1.670422054e-1
6.648596792e0,8.700942248e-2,2.188896015e-2,-2.167483792e-3,8.974666658e-2
6.658628417e0,-7.784992922e-3,6.723322906e-3,-1.492961776e-2,1.813015918e-2
6.668661417e0,-9.434811771e-2,-1.743521728e-2,-3.870286979e-3,9.602360771e-2
6.678693417e0,-1.337037832e-1,-2.772567049e-2,2.082866803e-2,1.381276505e-1
6.688725417e0,-1.330345273e-1,-2.386763319e-2,1.984634250e-2,1.366079305e-1
6.698757417e0,-9.971572459e-2,-1.044929586e-2,-3.235274227e-3,1.003139099e-1
6.708790417e0,-3.898073733e-2,-6.260719150e-3,-1.451982930e-2,4.206566212e-2
6.718822417e0,1.373600122e-2,7.160547655e-3,-4.862674512e-3,1.623566369e-2
6.728854417e0,4.958667979e-2,2.170442045e-2,1.698174281e-3,5.415537346e-2
6.738886417e0,6.117622554e-2,2.109162696e-2,-1.127752475e-4,6.471012299e-2
6.748919417e0,5.321391672e-2,9.020010941e-3,-8.580457419e-3,5.465076193e-2
6.758951417e0,3.797024861e-2,-1.324238838e-3,-7.774319034e-3,3.878058051e-2
6.768983417e0,2.249007486e-2,-8.397723548e-3,2.330371644e-3,2.411961567e-2
6.779016417e0,9.107158519e-3,-1.114157867e-2,1.115342416e-2,1.820642694e-2
6.789048417e0,-2.310880460e-3,-7.665439509e-3,8.058944717e-3,1.135982928e-2
6.799080417e0,-1.460216846e-2,-2.562023466e-3,3.389739431e-4,1.482909948e-2
6.809112417e0,-2.273785882e-2,2.283821814e-3,-3.011932131e-4,2.285425087e-2
6.819145417e0,-3.160805255e-2,7.447158918e-3,-3.394987434e-3,3.265049926e-2
6.829177417e0,-2.851638757e-2,6.873470731e-3,-5.708417855e-3,2.988335647e-2
6.839209417e0,-1.917934604e-2,3.717092331e-3,-2.515554661e-3,1.969751520e-2
6.849241417e0,-1.049051341e-2,2.029532334e-3,-1.216045814e-3,1.075400579e-2
6.859274417e0,3.536089556e-3,-3.479748964e-3,1.691327197e-3,5.241485466e-3
6.869306417e0,8.540701121e-3,-4.134928808e-3,4.102876410e-3,1.033802722e-2
6.879338417e0,8.355077356e-3,-6.087292451e-3,2.419225872e-3,1.061673683e-2
6.889371417e0,7.693557069e-3,-3.601776902e-3,4.413590766e-3,9.573055974e-3
6.899403417e0,9.263224900e-3,1.245442545e-3,-1.530318754e-3,9.471026247e-3
6.909435417e0,1.035460178e-2,3.633542452e-3,-7.209957112e-4,1.099728346e-2
6.919467417e0,1.644178852e-2,4.409321118e-3,-1.798414160e-4,1.702371480e-2
6.929500417e0,1.494001597e-2,6.422011182e-3,-7.965031546e-4,1.628129977e-2
6.939532417e0,8.200087585e-3,3.296258859e-3,-8.950401098e-4,8.883009381e-3
6.949564417e0,-6.533050444e-3,-4.867194220e-4,-4.819531459e-3,8.132990064e-3
6.959596417e0,-2.024460025e-2,-2.161422744e-4,2.969335765e-4,2.024793141e-2
6.969629417e0,-3.003412113e-2,-4.378299229e-3,4.621337168e-3,3.070137934e-2
6.979661417e0,-2.948923782e-2,-9.446857730e-4,3.766994923e-3,2.974387044e-2
6.989693417e0,-2.610303834e-2,-2.350559225e-3,2.744149184e-3,2.635192771e-2
6.999726417e0,-3.100517672e-3,2.960050013e-3,9.213766083e-3,1.016211550e-2
7.009758417e0,1.693603583e-2,1.094194688e-2,3.204468265e-2,3.786049653e-2
7.019790417e0,3.482262418e-2,2.297330834e-2,5.598357320e-2,6.981796702e-2
7.029822417e0,5.399632826e-2,4.027923569e-2,9.845357388e-2,1.192942853e-1
7.039855417e0,4.723482952e-2,1.358663943e-2,1.044363678e-1,1.154239178e-1
7.049887417e0,-2.991190925e-2,3.849954158e-2,1.216313615e-1,1.310386398e-1
7.059919417e0,-1.299176067e-1,6.168209016e-2,1.529836953e-1,2.099697021e-1
7.069952417e0,-2.567410469e-1,4.430097342e-2,5.048023537e-3,2.605840056e-1
7.079984417e0,-4.467972815e-1,-9.990230203e-3,-2.205044031e-1,4.983470751e-1
7.090016417e0,-5.508360863e-1,-1.235245354e-2,-1.910479814e-1,5.831571900e-1
7.100048417e0,-4.639440477e-1,-7.641559094e-2,1.257225219e-2,4.703631400e-1
7.110081417e0,-2.721285224e-1,-1.096188277e-1,3.819891065e-2,2.958536409e-1
7.120113417e0,-4.399095476e-2,-5.633164197e-2,-6.407175213e-3,7.176008558e-2
7.130145417e0,1.897118092e-1,2.767737955e-2,1.290882379e-1,2.311284946e-1
7.140177417e0,4.184102416e-1,3.195015714e-2,2.666407526e-1,4.971772659e-1
7.150210417e0,6.596819758e-1,-2.590590343e-2,1.695138514e-1,6.816057298e-1
7.160242417e0,7.484962344e-1,4.540582746e-2,-8.048161864e-2,7.541787540e-1
7.170274417e0,5.957021713e-1,1.857063025e-1,-2.482249886e-1,6.715381990e-1
7.180307417e0,2.662281394e-1,1.244061887e-1,-1.402074397e-1,3.255955284e-1
7.190339417e0,-1.100528166e-1,2.690455411e-3,2.166236565e-2,1.121967873e-1
7.200371417e0,-3.328294456e-1,-5.563224107e-2,4.759303108e-2,3.407865647e-1
7.210403417e0,-3.703368604e-1,-7.733571529e-2,5.749072507e-2,3.826687687e-1
7.220436417e0,-3.053581417e-1,-1.018828675e-1,5.189595371e-2,3.260627292e-1
7.230468417e0,-1.961626709e-1,-6.484735757e-2,-6.014935300e-2,2.151811281e-1
7.240500417e0,-6.468426436e-2,-4.313300177e-2,-7.800904661e-2,1.101359217e-1
7.250533417e0,6.090693176e-2,2.431985922e-5,3.294763342e-2,6.924739327e-2
7.260565417e0,1.354322881e-1,7.084177434e-2,5.221533775e-2,1.615144054e-1
7.270597417e0,1.483300030e-1,5.927623436e-2,-2.393121831e-2,1.615183116e-1
7.280629417e0,1.049029008e-1,3.551231697e-2,-7.678138465e-2,1.347632156e-1
7.290662417e0,5.371264741e-2,1.275519840e-2,-5.990516394e-2,8.146393217e-2
7.300694417e0,1.027728990e-2,-9.698711336e-3,6.856553257e-3,1.570668685e-2
7.310726417e0,-1.098988578e-2,-1.425719168e-2,6.839908659e-2,7.072821326e-2
7.320759417e0,-2.238155529e-2,-2.663396671e-2,4.836572334e-2,5.957806135e-2
7.330791417e0,-3.266883641e-2,-3.431998566e-2,-1.945569739e-2,5.122146473e-2
7.340823417e0,-3.970677406e-2,-3.685318306e-2,-2.521318570e-2,5.975357513e-2
7.350855417e0,-3.884628415e-2,-1.773550175e-2,1.859872043e-2,4.657782967e-2
7.360888417e0,-2.445029840e-2,8.016999811e-3,2.068077959e-2,3.301187699e-2
7.370920417e0,-2.919247374e-3,2.237947658e-2,-3.188555315e-2,3.906470884e-2
7.380952417e0,1.327090804e-2,2.924377099e-2,-6.397211552e-2,7.158035139e-2
7.390985417e0,2.848904394e-2,2.730129287e-2,-2.909521386e-2,4.902568394e-2
7.401017417e0,2.755906805e-2,1.265470590e-2,2.279727906e-2,3.793889490e-2
7.411049417e0,1.302858721e-2,-7.929004729e-3,2.966600284e-2,3.335693219e-2
7.421081417e0,-5.585310981e-3,-2.029512823e-2,-6.428885274e-3,2.200950918e-2
7.431114417e0,-1.367359702e-2,-2.995308116e-2,-2.887134254e-2,4.379165156e-2
7.441146417e0,1.641443232e-3,-1.836167276e-2,-1.921898313e-2,2.663108475e-2
7.451178417e0,2.498113364e-2,-1.624007127e-3,8.499457501e-3,2.643738291e-2
7.461211417e0,4.536789656e-2,4.547336139e-3,1.435974427e-2,4.780299739e-2
7.471243417e0,4.671571031e-2,5.434251390e-3,-6.472880952e-3,4.747406519e-2
7.481275417e0,1.351244152e-1,9.324505925e-2,7.959505310e-4,1.641763752e-1
7.491307417e0,3.114850819e-1,1.402244419e-1,7.588115335e-2,3.499197048e-1
7.501340417e0,4.912162423e-1,9.549505264e-2,7.085043937e-2,5.054032910e-1
7.511372417e0,5.067965388e-1,5.431210399e-1,1.569662243e-1,7.592506775e-1
7.521404417e0,3.052889705e-1,6.295136809e-1,2.817856371e-1,7.542492793e-1
7.531437417e0,-2.192531079e-1,1.584075540e-1,2.316080630e-1,3.560999485e-1
7.541469417e0,-1.190645337e0,-1.573261619e-1,3.706521168e-2,1.201566340e0
7.551501417e0,-2.095727444e0,-2.810880840e-1,-1.928377748e-1,2.123268809e0
7.561533417e0,-2.554940701e0,-2.244562358e-1,-1.610739827e-1,2.569834122e0
7.571566417e0,-2.635586262e0,-2.444444150e-1,-3.302849084e-2,2.647103870e0
7.581598417e0,-2.489748955e0,-2.309893221e-1,-4.045004025e-4,2.500441179e0
7.591630417e0,-2.048913717e0,-1.913066208e-1,6.993591040e-2,2.059013520e0
7.601663417e0,-5.452048779e-1,-3.385761753e-2,4.655330479e-1,7.177156232e-1
7.611695417e0,8.535799384e-1,5.381674767e-1,5.865143538e-1,1.167142678e0
7.621727417e0,1.363922000e0,5.625966787e-1,7.416125536e-1,1.651298708e0
7.631759417e0,9.075940251e-1,3.734508157e-1,1.085199714e0,1.463164668e0
7.641792417e0,-2.363258451e-1,3.892066181e-1,1.358956695e0,1.433211427e0
7.651824667e0,-1.667354703e0,4.675511718e-1,1.710039258e0,2.433702954e0
7.661856667e0,-2.974312067e0,4.427515268e-1,1.787831783e0,3.498414451e0
7.671889667e0,-3.751390219e0,5.109617114e-1,1.326285124e0,4.011613475e0
7.681921667e0,-3.821200371e0,8.921266794e-1,6.674261093e-1,3.980316557e0
7.691953667e0,-3.374769926e0,1.295336008e0,7.060553432e-1,3.683134748e0
7.701986667e0,-2.834400415e0,1.376409888e0,1.081212282e0,3.331268511e0
7.712018667e0,-2.455897808e0,1.625305414e0,1.327003360e0,3.230168672e0
7.722050667e0,-2.213182449e0,1.921668887e0,1.455851674e0,3.272688797e0
7.732082667e0,-1.857615948e0,2.108207464e0,1.315902948e0,3.102720788e0
7.742115667e0,-1.329623222e0,2.169422388e0,1.096495748e0,2.770666767e0
7.752147667e0,-7.005033493e-1,1.895138502e0,8.938447237e-1,2.209346798e0
7.762179667e0,1.644178331e-1,1.302784085e0,7.907769680e-1,1.532843048e0
7.772212667e0,9.417428374e-1,7.284117341e-1,1.021380067e0,1.568655624e0
7.782244667e0,1.363298178e0,2.267121673e-1,1.256241679e0,1.867651864e0
7.792276667e0,1.535073042e0,-5.660293996e-2,1.338690519e0,2.037583236e0
7.802308667e0,1.560828805e0,-1.083292514e-1,1.334520817e0,2.056421065e0
7.812341667e0,1.558086276e0,-5.780664459e-2,1.373865247e0,2.078095322e0
7.822373667e0,1.577201605e0,-2.295813411e-1,1.392205834e0,2.116248941e0
7.832405667e0,1.570750356e0,-6.687424183e-1,1.348292828e0,2.175400343e0
7.842438667e0,1.548847198e0,-1.222858906e0,1.235567808e0,2.328291081e0
7.852470667e0,1.557485938e0,-1.745296240e0,1.000663996e0,2.544238559e0
7.862502667e0,1.588159442e0,-2.128477097e0,7.016743422e-1,2.746818532e0
7.872534667e0,1.482147574e0,-2.155547857e0,5.631633401e-1,2.675873866e0
7.882567667e0,1.237994552e0,-1.498830438e0,8.302227259e-1,2.113857366e0
7.892599667e0,1.038246751e0,-4.488167763e-1,1.371255636e0,1.777564298e0
7.902631667e0,1.201792598e0,2.300298959e-1,1.792666554e0,2.170454463e0
7.912664667e0,1.691263199e0,2.612438500e-1,1.945358634e0,2.590953448e0
7.922696667e0,2.035228729e0,-7.824908011e-3,1.979884624e0,2.839394361e0
7.932728667e0,2.102761269e0,-2.693689466e-1,2.026176929e0,2.932500219e0
7.942760667e0,2.041743040e0,-5.207915902e-1,2.026706934e0,2.923607278e0
7.952793667e0,1.952535868e0,-6.918665767e-1,1.896822095e0,2.808738104e0
7.962825667e0,1.822789907e0,-6.630053520e-1,1.630982161e0,2.534214267e0
7.972857667e0,1.658603549e0,-4.459797144e-1,1.263693213e0,2.132318967e0
7.982890667e0,1.501942039e0,-1.412214041e-1,8.646211624e-1,1.738776330e0
7.992922667e0,1.363878489e0,1.288456023e-1,5.119860768e-1,1.462496312e0
8.002954667e0,1.267863035e0,3.341247439e-1,2.749226987e-1,1.339663581e0
8.012987667e0,1.200054169e0,4.730986655e-1,1.712278128e-1,1.301257591e0
8.023019667e0,1.141860008e0,5.005172491e-1,1.855079532e-1,1.260466182e0
8.033051667e0,1.042229295e0,3.838891983e-1,3.275295496e-1,1.157967368e0
8.043083667e0,9.188748598e-1,1.503805667e-1,5.752708912e-1,1.094477922e0
8.053116667e0,8.120487928e-1,-2.525497377e-1,8.019557595e-1,1.168904467e0
8.063148667e0,7.374587059e-1,-7.004862428e-1,9.709330201e-1,1.406142684e0
8.073180667e0,6.882203221e-1,-1.029959083e0,1.098212004e0,1.655455384e0
8.083213667e0,6.535771489e-1,-1.195099831e0,1.189102292e0,1.808145723e0
8.093245667e0,6.213999987e-1,-1.178443313e0,1.202775359e0,1.794863550e0
8.103277667e0,5.929699540e-1,-1.058153749e0,1.140013099e0,1.664611843e0
8.113309667e0,5.945446491e-1,-1.019667029e0,1.051194668e0,1.580574079e0
8.123342667e0,6.130243540e-1,-1.016182065e0,1.025893569e0,1.568720008e0
8.133374667e0,6.912089586e-1,-9.667224884e-1,1.065880299e0,1.596378090e0
8.143406667e0,7.768652439e-1,-9.557036757e-1,1.084619164e0,1.641123961e0
8.153439667e0,9.076416492e-1,-9.226412177e-1,1.099551439e0,1.698261920e0
8.163471667e0,1.051261783e0,-8.928681612e-1,1.100072145e0,1.764234569e0
8.173503667e0,1.190170527e0,-8.861556053e-1,1.089937210e0,1.841124863e0
8.183536667e0,1.318326592e0,-8.347741365e-1,1.063988447e0,1.888624970e0
8.193568667e0,1.367540717e0,-7.854448557e-1,1.003532648e0,1.869269646e0
8.203600667e0,1.322196364e0,-6.984100938e-1,9.154512286e-1,1.753291430e0
8.213632667e0,1.183795929e0,-5.828431845e-1,7.839890122e-1,1.534834763e0
8.223665667e0,1.009168506e0,-4.798263013e-1,6.800077558e-1,1.308076794e0
8.233697667e0,8.352377415e-1,-2.977572083e-1,6.341864467e-1,1.090171495e0
8.243729667e0,6.586869359e-1,-5.581198260e-2,6.052514911e-1,8.962772029e-1
8.253762667e0,4.979044497e-1,2.175541818e-1,6.002570391e-1,8.096586787e-1
8.263794667e0,4.134686589e-1,4.188060462e-1,5.995097756e-1,8.400992842e-1
8.273826667e0,4.405319989e-1,4.312858284e-1,5.966455936e-1,8.579404829e-1
8.283858667e0,5.638707280e-1,2.442741394e-1,5.630434155e-1,8.334494231e-1
8.293891667e0,7.329528928e-1,-2.489074599e-3,5.100607276e-1,8.929658920e-1
8.303923667e0,9.018439054e-1,-1.826002449e-1,4.542094469e-1,1.026143996e0
8.313955667e0,1.055566311e0,-2.406200320e-1,4.597913027e-1,1.176233939e0
8.323988667e0,1.160984874e0,-2.429369837e-1,5.616305470e-1,1.312376900e0
8.334020667e0,1.059855103e0,-3.095026612e-1,7.095978856e-1,1.312483865e0
8.344052667e0,8.360766768e-1,-4.512185454e-1,8.758108616e-1,1.292155970e0
8.354084667e0,6.528336406e-1,-7.039937973e-1,9.964230657e-1,1.383711659e0
8.364117667e0,5.598269701e-1,-1.025559068e0,1.024915576e0,1.554229576e0
8.374149667e0,4.885183871e-1,-1.331629515e0,9.267109036e-1,1.694308259e0
8.384181667e0,3.578810096e-1,-1.627623916e0,6.930754334e-2,1.667945432e0
8.394214667e0,2.970656455e-1,-1.623005867e0,-8.760472536e-1,1.868115316e0
8.404246667e0,5.494459271e-1,-1.202398419e0,-1.354879856e0,1.892974435e0
8.414278667e0,1.133969307e0,-7.448080778e-1,-1.136014700e0,1.769506954e0
8.424311667e0,1.413111210e0,-6.391530633e-1,-6.796263456e-1,1.693307975e0
8.434343667e0,1.339170218e0,-8.485298753e-1,-3.694082499e-1,1.627833614e0
8.444375667e0,1.124646425e0,-1.101014853e0,-2.394140884e-2,1.574050977e0
8.454407667e0,1.008416414e0,-1.154681802e0,1.776694804e-1,1.543295232e0
8.464440667e0,1.183193088e0,-1.108741999e0,2.096758783e-1,1.634998066e0
8.474472667e0,1.135637522e0,-1.348372817e0,2.030429691e-1,1.774544528e0
8.484504667e0,1.035153508e0,-1.555667758e0,2.158367932e-1,1.881018469e0
8.494537667e0,1.004469633e0,-1.488972783e0,1.373891234e-1,1.801353648e0
8.504569667e0,9.021664262e-1,-1.263686419e0,-1.068130415e-2,1.552714306e0
8.514601667e0,6.789482832e-1,-1.103103638e0,-1.662067771e-1,1.305922318e0
8.524634667e0,5.298016667e-1,-9.806805253e-1,-2.925519049e-1,1.152393473e0
8.534666667e0,4.601211250e-1,-9.056332111e-1,-3.738110960e-1,1.082412906e0
8.544698667e0,4.497105479e-1,-8.294846416e-1,-3.957038522e-1,1.023164643e0
8.554730667e0,4.882928133e-1,-7.713085413e-1,-3.769550622e-1,9.876446002e-1
8.564763667e0,5.550689101e-1,-7.008298635e-1,-3.001787961e-1,9.430648452e-1
8.574795667e0,5.938016176e-1,-6.807477474e-1,-2.149858624e-1,9.285670561e-1
8.584827667e0,6.347813010e-1,-6.491008997e-1,-1.241683364e-1,9.163498534e-1
8.594860667e0,6.601772904e-1,-5.970916152e-1,-6.950105727e-2,8.928509667e-1
8.604892667e0,6.518988609e-1,-4.339823127e-1,-5.582199991e-2,7.851298417e-1
8.614924667e0,5.893281102e-1,-3.299452066e-1,-1.187382117e-1,6.857625127e-1
8.624957667e0,5.092473626e-1,-2.418534309e-1,-1.328678876e-1,5.792062102e-1
8.634989667e0,4.403947592e-1,-1.752022058e-1,-7.973275334e-2,4.806252894e-1
8.645021667e0,3.774365783e-1,-1.556801796e-1,-3.203847259e-2,4.095377305e-1
8.655054458e0,3.684830666e-1,-1.588646472e-1,4.799486138e-3,4.012988681e-1
8.665087458e0,3.970620036e-1,-2.048355937e-1,1.961332001e-2,4.472141964e-1
8.675119458e0,4.329893291e-1,-2.988987863e-1,-7.225372829e-3,5.261867060e-1
8.685151458e0,5.002338886e-1,-4.078846574e-1,-1.251600869e-2,6.455698936e-1
8.695184458e0,4.604188204e-1,-4.395203590e-1,7.540447405e-4,6.365251014e-1
8.705216458e0,4.006699920e-1,-3.765091896e-1,3.709607199e-2,5.510641804e-1
8.715248458e0,3.246687651e-1,-2.334120721e-1,6.256233156e-2,4.047283629e-1
8.725281458e0,2.550414801e-1,-9.185706824e-2,4.157262668e-2,2.742483561e-1
8.735313458e0,2.512195408e-1,-3.598299250e-2,-1.093355846e-2,2.540188500e-1
8.745345458e0,3.248314559e-1,-7.576343417e-2,-7.699007541e-2,3.423200906e-1
8.755377458e0,4.176308811e-1,-1.933776289e-1,-1.563954651e-1,4.860761275e-1
8.765410458e0,4.800111651e-1,-3.470465541e-1,-2.071931362e-1,6.275197408e-1
8.775442458e0,4.543442130e-1,-4.348020256e-1,-2.443182021e-1,6.746649904e-1
8.785474458e0,3.424547017e-1,-4.088084996e-1,-2.071330249e-1,5.721046251e-1
8.795507458e0,1.712163538e-1,-2.782301307e-1,-1.684935242e-1,3.675827976e-1