"Time (s)","Gyroscope x (rad/s)","Gyroscope y (rad/s)","Gyroscope z (rad/s)","Absolute (rad/s)"
1.041858333e-2,-4.586659968e-1,-3.738447130e-1,7.327791303e-2,5.962415774e-1
2.045158333e-2,-6.243544817e-1,-4.801521897e-1,7.693621516e-2,7.913809609e-1
3.048458334e-2,-8.653950691e-1,-6.242132783e-1,1.217351109e-1,1.073950781e0
4.051758334e-2,-1.196087360e0,-6.934893727e-1,1.910889745e-1,1.395731880e0
5.054958333e-2,-1.507259369e0,-6.867803335e-1,3.060901165e-1,1.684395794e0
6.058258333e-2,-1.699271202e0,-6.660885215e-1,5.117375255e-1,1.895539984e0
7.061558333e-2,-1.746580482e0,-7.772640586e-1,7.496094704e-1,2.053435451e0
8.064858334e-2,-1.732854247e0,-9.270041585e-1,1.006462574e0,2.207960023e0
9.068158334e-2,-1.702511072e0,-9.881367683e-1,1.218038678e0,2.314859919e0
1.007145833e-1,-1.713115692e0,-1.148385406e0,1.251973748e0,2.412673347e0
1.107475833e-1,-1.820396662e0,-1.466622949e0,1.253455043e0,2.652541503e0
1.207805833e-1,-1.926391006e0,-1.779489636e0,1.373425603e0,2.960382333e0
1.308135833e-1,-2.010458708e0,-1.914465308e0,1.637284636e0,3.223014523e0
1.408465833e-1,-2.092382193e0,-1.918302059e0,1.887659431e0,3.408988729e0
1.508795833e-1,-2.184947491e0,-1.994595528e0,2.106158972e0,3.631571625e0
1.609125833e-1,-2.281520367e0,-2.161512613e0,2.247439623e0,3.863736122e0
1.709455833e-1,-2.318408489e0,-2.283503294e0,2.159370661e0,3.905417630e0
1.809785833e-1,-2.267054081e0,-2.216686964e0,1.887536764e0,3.689990561e0
1.910115833e-1,-2.186646938e0,-2.034684658e0,1.555736780e0,3.367741590e0
2.010445833e-1,-2.111500978e0,-1.716195345e0,1.245210648e0,2.992375712e0
2.110771667e-1,-2.049054384e0,-1.304714084e0,9.979432821e-1,2.626174690e0
2.211101667e-1,-1.960376382e0,-9.277775288e-1,8.207837343e-1,2.318950763e0
2.311431667e-1,-1.788612127e0,-6.496830583e-1,6.775618792e-1,2.019978098e0
2.411761667e-1,-1.556649804e0,-4.258671403e-1,5.244663954e-1,1.696934422e0
2.512091667e-1,-1.250732780e0,-1.443555653e-1,3.558821976e-1,1.308366598e0
2.612421667e-1,-9.155439734e-1,1.032776684e-1,1.798648983e-1,9.387430030e-1
2.712751667e-1,-6.844494939e-1,4.161799252e-1,1.089933962e-1,8.084283519e-1
2.813081667e-1,-5.027047992e-1,8.572947383e-1,-2.046938287e-3,9.938161668e-1
2.913411667e-1,-3.860274851e-1,1.246228814e0,-1.056308523e-1,1.308916099e0
3.013741667e-1,-3.309621811e-1,1.469332099e0,-1.586039662e-1,1.514472846e0
3.114071667e-1,-3.507593274e-1,1.463253140e0,-1.902843863e-1,1.516690478e0
3.214401667e-1,-5.984317660e-1,1.040761828e0,-2.179364562e-1,1.220164768e0
3.314731667e-1,-7.977776527e-1,5.876881480e-1,-2.153851390e-1,1.014010503e0
3.415061667e-1,-8.370183110e-1,1.903547943e-1,-2.227618992e-1,8.868243707e-1
3.515391667e-1,-7.966546416e-1,-1.168509722e-1,-2.210532278e-1,8.349714350e-1
3.615721667e-1,-7.020222545e-1,-2.428006679e-1,-2.421223074e-1,7.812877971e-1
3.716051667e-1,-6.011563540e-1,-1.880077273e-1,-3.266305327e-1,7.095233416e-1
3.816381667e-1,-5.142194629e-1,-3.260007873e-2,-3.520051837e-1,6.240128769e-1
3.916711667e-1,-5.067319870e-1,1.409493387e-1,-3.099972606e-1,6.105262683e-1
4.017041667e-1,-5.591548085e-1,1.567037404e-1,-2.810492814e-1,6.451347616e-1
4.117371667e-1,-3.526360393e-1,-2.013585418e-1,-3.509774804e-1,5.367332953e-1
4.217701667e-1,-1.112532169e-1,-2.612116635e-1,-3.667153716e-1,4.637768593e-1
4.318031667e-1,1.661685556e-1,-1.323280036e-1,-3.304668367e-1,3.928498690e-1
4.418361667e-1,4.657851458e-1,1.157242879e-1,-3.277703822e-1,5.811895872e-1
4.518691667e-1,7.758746147e-1,3.904410601e-1,-4.671498537e-1,9.862325410e-1
4.619021667e-1,1.120583653e0,5.767259598e-1,-7.034138441e-1,1.443298858e0
4.719351667e-1,1.385778904e0,8.203274012e-1,-8.335697055e-1,1.813328065e0
4.819681667e-1,1.499928236e0,1.201651096e0,-7.303557396e-1,2.056008166e0
4.920011667e-1,1.448678017e0,1.626021266e0,-3.962675035e-1,2.213513291e0
5.020341667e-1,1.201007843e0,1.796533704e0,-1.219004691e-1,2.164442864e0
5.120671667e-1,8.285117745e-1,1.767678022e0,2.612548508e-2,1.952383132e0
5.221001667e-1,3.621719480e-1,1.498579144e0,1.274398714e-1,1.546980573e0
5.321331667e-1,-1.073393375e-1,1.080568314e0,2.020986527e-1,1.104533150e0
5.421661667e-1,-5.178853273e-1,7.378507853e-1,2.541346848e-1,9.365967284e-1
5.521991667e-1,-8.708662987e-1,6.204189658e-1,2.953601480e-1,1.109308533e0
5.622321667e-1,-1.130378008e0,7.490227818e-1,3.469813466e-1,1.399709121e0
5.722651667e-1,-1.284621835e0,9.582393765e-1,3.991827369e-1,1.651612188e0
5.822981667e-1,-1.315989971e0,1.129856229e0,4.355963767e-1,1.788336910e0
5.923311667e-1,-1.367783666e0,1.225650907e0,4.447818696e-1,1.889678071e0
6.023641667e-1,-1.238686085e0,8.873969913e-1,4.534251094e-1,1.589783308e0
6.123971667e-1,-1.077994943e0,4.681015015e-1,4.792143703e-1,1.269188136e0
6.224301667e-1,-8.736156821e-1,1.352244169e-1,5.806390047e-1,1.057653845e0
6.324631667e-1,-6.275638342e-1,-5.436442420e-2,7.615951896e-1,9.883415854e-1
6.424961667e-1,-3.708891869e-1,-1.152888387e-1,7.486196160e-1,8.433751447e-1
6.525291667e-1,-1.907071620e-1,-1.501416136e-2,4.964246750e-1,5.320076171e-1
6.625621667e-1,-6.098208576e-2,-5.363211632e-1,4.461931810e-2,5.416180281e-1
6.725951667e-1,-6.123694777e-2,-1.154096723e0,-5.502792001e-1,1.280037658e0
6.826281667e-1,-1.809800416e-1,-1.763573170e0,-1.002298474e0,2.036552561e0
6.926611667e-1,-3.951794207e-1,-2.372986317e0,-1.193080187e0,2.685269291e0
7.026941667e-1,-5.661073327e-1,-2.902982235e0,-1.172552943e0,3.181613392e0
7.127271667e-1,-6.648003459e-1,-2.995456934e0,-1.044754982e0,3.241332244e0
7.227601667e-1,-6.842985153e-1,-2.663952827e0,-8.815367222e-1,2.888254857e0
7.327931667e-1,-6.977754235e-1,-2.115338802e0,-8.025761247e-1,2.367631142e0
7.428261667e-1,-7.290894985e-1,-1.337413907e0,-8.649092913e-1,1.751660794e0
7.528591667e-1,-7.945739627e-1,-4.862961769e-1,-9.261521697e-1,1.313616990e0
7.628921667e-1,-8.683225513e-1,2.084112763e-1,-9.149104357e-1,1.278467997e0
7.729251667e-1,-8.700829148e-1,7.170146108e-1,-8.096716404e-1,1.388064262e0
7.829581667e-1,-7.863126993e-1,8.738151789e-1,-6.320621371e-1,1.334669687e0
7.929911667e-1,-6.301577091e-1,6.543557644e-1,-4.088141322e-1,9.961973697e-1
8.030241667e-1,-4.065002203e-1,1.769992858e-1,-1.291999072e-1,4.618049288e-1
8.130571667e-1,-1.771698147e-1,-5.923488140e-1,3.687907755e-2,6.193757560e-1
8.230901667e-1,1.274373084e-1,-7.647014856e-1,5.752687529e-2,7.773789109e-1
8.331231667e-1,4.026217461e-1,-6.086130738e-1,-9.763581306e-2,7.362383419e-1
8.431561667e-1,6.402992606e-1,-2.525908351e-1,-2.415083647e-1,7.294597750e-1
8.531891667e-1,8.239833117e-1,1.085750833e-1,-2.893418968e-1,8.800316925e-1
8.632221667e-1,9.197043777e-1,3.989650905e-1,-2.341284603e-1,1.029487941e0
8.732551667e-1,9.302992821e-1,2.645575106e-1,-3.676211089e-2,9.678837138e-1
8.832881667e-1,8.606204391e-1,1.898294687e-1,2.807443738e-1,9.249433338e-1
8.933211667e-1,7.496726513e-1,4.927483201e-1,6.012794971e-1,1.079975474e0
9.033541667e-1,5.253579617e-1,6.921944618e-1,7.866076231e-1,1.172128710e0
9.133871667e-1,2.457425594e-1,7.663328648e-1,8.588330746e-1,1.176966319e0
9.234201667e-1,-5.974022299e-2,7.119760513e-1,8.271213770e-1,1.092981502e0
9.334531667e-1,-3.819065392e-1,5.139812231e-1,7.105053067e-1,9.564763945e-1
9.434861667e-1,-6.516786218e-1,3.361737132e-1,5.842275023e-1,9.375604333e-1
9.535191667e-1,-8.313186765e-1,2.879907489e-1,4.546122849e-1,9.903038639e-1
9.635521667e-1,-8.888217807e-1,3.786747456e-1,2.974230349e-1,1.010870507e0
9.735851667e-1,-8.220528960e-1,4.912801385e-1,1.296273768e-1,9.664007425e-1
9.836181667e-1,-6.963720322e-1,7.310492992e-1,-9.850652516e-2,1.014431181e0
9.936511667e-1,-5.482289195e-1,8.943495750e-1,-3.584835231e-1,1.108569595e0
1.003684167e0,-3.964001536e-1,1.137734890e0,-3.902492225e-1,1.266439188e0
1.013717167e0,-2.736585140e-1,1.238651872e0,-2.047017217e-1,1.284931997e0
1.023750167e0,-2.157338560e-1,1.050134063e0,1.086854748e-2,1.072119756e0
1.033783167e0,-1.729821265e-1,5.903858542e-1,1.877192110e-1,6.432081896e-1
1.043816167e0,-9.526386112e-2,1.653066128e-1,3.049599528e-1,3.597249676e-1
1.053849167e0,-2.623671899e-3,-1.144688353e-1,3.107163608e-1,3.311414423e-1
1.063882167e0,7.812958956e-2,-2.624374628e-1,2.235235274e-1,3.534691245e-1
1.073915167e0,1.409061551e-1,-2.942656875e-1,1.175251827e-1,3.467838057e-1
1.083948167e0,1.943696141e-1,-2.474071234e-1,7.053299248e-2,3.224356287e-1
1.093981167e0,2.361585945e-1,-2.706240416e-1,1.147406623e-1,3.770592436e-1
1.104014167e0,2.736024261e-1,-3.054564893e-1,2.371994406e-1,4.737357164e-1
1.114046167e0,3.142979443e-1,-3.349896371e-1,3.603861034e-1,5.838487803e-1
1.124079167e0,3.385513127e-1,-3.240214586e-1,4.053684175e-1,6.196212156e-1
1.134112167e0,3.504130542e-1,-2.504242063e-1,3.072788715e-1,5.290764562e-1
1.144145167e0,3.653602898e-1,-9.800139070e-2,1.583365351e-1,4.100766664e-1
1.154178167e0,3.860232234e-1,-1.638269052e-2,4.934133962e-2,3.895085228e-1
1.164211167e0,4.223263860e-1,4.363837466e-2,3.719046246e-3,4.245912332e-1
1.174244167e0,4.947254956e-1,1.582935750e-1,1.424652152e-2,5.196278815e-1
1.184277167e0,5.929015875e-1,2.674248517e-1,1.344536990e-1,6.641732763e-1
1.194310167e0,6.810037494e-1,2.847047746e-1,3.065165579e-1,7.992342057e-1
1.204343167e0,7.201117277e-1,2.264443487e-1,4.380626380e-1,8.727753539e-1
1.214376667e0,6.993532181e-1,2.540730536e-1,5.171500444e-1,9.061413845e-1
1.224409667e0,6.211841106e-1,3.648181856e-1,5.466669798e-1,9.043267079e-1
1.234442667e0,5.226364732e-1,4.284507036e-1,4.763342142e-1,8.268090300e-1
1.244475667e0,3.807460666e-1,2.314944267e-1,3.407049775e-1,5.609252343e-1
1.254508667e0,2.243942469e-1,2.593248151e-2,1.758052260e-1,2.862389721e-1
1.264541667e0,4.522575065e-2,-5.975253135e-2,8.152006194e-3,7.538029404e-2
1.274574667e0,-1.389659196e-1,-1.550433487e-1,-1.199620217e-1,2.402932655e-1
1.284607667e0,-2.992351651e-1,-2.805189788e-1,-2.132134736e-1,4.622689335e-1
1.294640667e0,-4.373576045e-1,-3.883272111e-1,-2.850781083e-1,6.506529220e-1
1.304673667e0,-5.481348634e-1,-5.043031573e-1,-3.356847763e-1,8.169808884e-1
1.314706667e0,-6.092027426e-1,-5.340501070e-1,-3.500107229e-1,8.825219569e-1
1.324739667e0,-5.928751230e-1,-3.957065046e-1,-3.331561685e-1,7.868148333e-1
1.334772667e0,-4.861582816e-1,-1.362349838e-1,-2.916422784e-1,5.830652314e-1
1.344805667e0,-3.395772576e-1,1.158830747e-1,-3.009935915e-1,4.683361432e-1
1.354838667e0,-1.861176640e-1,2.683905959e-1,-3.746699393e-1,4.970421111e-1
1.364871667e0,-1.361397374e-2,3.154768646e-1,-4.027800560e-1,5.118034446e-1
1.374904667e0,1.766510308e-1,3.085563779e-1,-3.047104776e-1,4.682532436e-1
1.384937667e0,3.756199777e-1,3.595573902e-1,-1.621990353e-1,5.446837721e-1
1.394970667e0,5.661087036e-1,3.551402688e-1,-1.832229458e-2,6.685352506e-1
1.405003667e0,7.249633670e-1,2.427751720e-1,1.097242087e-1,7.723671857e-1
1.415036667e0,8.217671514e-1,1.637013853e-1,1.833523512e-1,8.577397503e-1
1.425069667e0,8.215081096e-1,-1.623177528e-2,1.535886526e-1,8.358998258e-1
1.435102667e0,7.451208830e-1,-3.048627973e-1,5.154805258e-2,8.067240279e-1
1.445135667e0,6.295517087e-1,-6.589892507e-1,-5.096968263e-2,9.127979486e-1
1.455168667e0,3.978529572e-1,-1.040134072e0,-9.172750264e-2,1.117398675e0
1.465201667e0,1.137754545e-1,-9.562240839e-1,-9.279404581e-2,9.674296293e-1
1.475234667e0,-2.482559979e-1,-6.957437396e-1,-6.491793692e-2,7.415556151e-1
1.485267667e0,-6.068606377e-1,-3.436998129e-1,4.181694239e-2,6.986830838e-1
1.495300667e0,-9.122290611e-1,-9.366152808e-4,1.756751537e-1,9.289911177e-1
1.505333667e0,-1.145191550e0,1.755713075e-1,2.546879351e-1,1.186235607e0
1.515366667e0,-1.278281927e0,2.728552520e-1,2.554687560e-1,1.331810407e0
1.525399667e0,-1.305367947e0,2.026755065e-1,2.377200425e-1,1.342227125e0
1.535432667e0,-1.204949141e0,1.144122109e-1,2.151255161e-1,1.229337860e0
1.545465667e0,-9.811161160e-1,1.178654656e-1,1.800225228e-1,1.004434771e0
1.555498667e0,-7.110558748e-1,1.337890327e-1,2.477064878e-1,7.647603981e-1
1.565531667e0,-3.926936388e-1,1.839697808e-1,3.701838553e-1,5.701659942e-1
1.575564667e0,-6.462894380e-2,1.471864730e-1,3.971592784e-1,4.284579917e-1
1.585597667e0,2.410786152e-1,1.378373802e-2,2.956902981e-1,3.817612376e-1
1.595630667e0,5.073480606e-1,-1.552492231e-1,1.058162451e-1,5.410189032e-1
1.605663667e0,7.256301045e-1,-3.170055747e-1,-8.159931004e-2,7.960465002e-1
1.615696667e0,9.067146778e-1,-4.887970388e-1,-1.700106710e-1,1.044010383e0
1.625729667e0,1.063297272e0,-5.649675727e-1,-1.358448714e-1,1.211710888e0
1.635762667e0,1.192756653e0,-5.106145740e-1,-1.914330013e-2,1.297598606e0
1.645795667e0,1.284358859e0,-2.795864940e-1,1.101996377e-1,1.319048993e0
1.655828667e0,1.327391028e0,1.250023022e-2,2.124240100e-1,1.344338930e0
1.665861667e0,1.312848210e0,2.109625936e-1,2.597946227e-1,1.354831682e0
1.675894667e0,1.221111417e0,2.431668639e-1,2.172383964e-1,1.263897044e0
1.685927667e0,1.062296391e0,2.724620402e-1,8.689466119e-2,1.100118115e0
1.695960667e0,8.499716520e-1,3.062990904e-1,-7.917872816e-2,9.069400272e-1
1.705993667e0,6.244647503e-1,3.589379489e-1,-2.260381132e-1,7.549078779e-1
1.716026667e0,3.879930973e-1,3.817601502e-1,-2.860540450e-1,6.149035473e-1
1.726059667e0,1.320589930e-1,3.724811077e-1,-2.464216501e-1,4.657310198e-1
1.736092667e0,-1.614929885e-1,3.724523485e-1,-1.170364916e-1,4.224905651e-1
1.746125667e0,-5.036126375e-1,3.514030576e-1,4.389704019e-2,6.156596037e-1
1.756158667e0,-8.392961025e-1,3.150341511e-1,1.745155007e-1,9.133017705e-1
1.766191667e0,-1.136652827e0,2.643620968e-1,2.430529743e-1,1.192032599e0
1.776224667e0,-1.388144970e0,2.365064919e-1,2.266188711e-1,1.426267118e0
1.786257667e0,-1.577746868e0,2.484292686e-1,1.424397677e-1,1.603524670e0
1.796290667e0,-1.684033394e0,2.897974849e-1,4.559791461e-2,1.709394695e0
1.806323667e0,-1.720719218e0,2.882594466e-1,4.955625627e-4,1.744697218e0
1.816356667e0,-1.703315139e0,2.555502355e-1,1.865991764e-2,1.722479776e0
1.826389667e0,-1.643692613e0,1.866308898e-1,6.254503876e-2,1.655436008e0
1.836422667e0,-1.550062537e0,9.190250933e-2,1.130750552e-1,1.556896242e0
1.846455667e0,-1.434534311e0,-4.552472755e-2,1.719610840e-1,1.445521292e0
1.856488667e0,-1.290667892e0,-2.255538851e-1,2.159762084e-1,1.327909592e0
1.866521667e0,-1.116210938e0,-3.383442163e-1,2.447405756e-1,1.191764077e0
1.876554667e0,-9.368122816e-1,-4.013333023e-1,2.510746419e-1,1.049630481e0
1.886587667e0,-7.717078924e-1,-4.722851813e-1,2.275959104e-1,9.329449406e-1
1.896620667e0,-6.515519023e-1,-5.092359781e-1,2.142596096e-1,8.542530908e-1
1.906653667e0,-6.033073068e-1,-4.210413694e-1,2.555793822e-1,7.788301238e-1
1.916686667e0,-6.438142657e-1,-2.314732820e-1,3.631878495e-1,7.745851167e-1
1.926719667e0,-7.679080963e-1,1.148410141e-2,4.685139358e-1,8.996221635e-1
1.936752667e0,-9.708684087e-1,2.246954441e-1,5.105569959e-1,1.119706192e0
1.946785667e0,-1.212964058e0,2.751378417e-1,4.787315130e-1,1.332728967e0
1.956818667e0,-1.475403309e0,2.715660036e-1,4.463727772e-1,1.565187425e0
1.966851667e0,-1.722309113e0,3.157592416e-1,4.075134099e-1,1.797809711e0
1.976884667e0,-1.937541008e0,3.283474743e-1,3.430601060e-1,1.994885325e0
1.986916667e0,-2.102851391e0,3.304334581e-1,2.551154494e-1,2.143887622e0
1.996949667e0,-2.186731339e0,3.449109197e-1,1.890115440e-1,2.221819717e0
2.006982667e0,-2.192002296e0,3.672078550e-1,1.424379945e-1,2.227106701e0
2.017015667e0,-2.147901773e0,4.012510478e-1,6.775709987e-2,2.186109662e0
2.027048667e0,-2.068111181e0,4.607360065e-1,-7.586169988e-2,2.120168985e0
2.037081667e0,-1.972131014e0,4.478790462e-1,-2.295889407e-1,2.035339642e0
2.047114667e0,-1.842349887e0,3.252441585e-1,-3.227081299e-1,1.898467120e0
2.057147667e0,-1.680615902e0,1.566101313e-1,-3.094812632e-1,1.716034730e0
2.067180667e0,-1.468881011e0,1.410743892e-1,-2.115217298e-1,1.490722929e0
2.077213667e0,-1.229421496e0,2.808557153e-1,-8.752334863e-2,1.264127163e0
2.087246667e0,-9.680042267e-1,5.302503705e-1,-2.863365225e-2,1.104091266e0
2.097279667e0,-6.772600412e-1,7.380000949e-1,-1.041846052e-1,1.007064911e0
2.107312667e0,-3.635155559e-1,7.326147556e-1,-2.611511350e-1,8.585265603e-1
2.117345667e0,-2.598731779e-2,5.271092653e-1,-3.862986565e-1,6.540230655e-1
2.127378667e0,3.466797471e-1,1.732751876e-1,-4.135794640e-1,5.667972395e-1
2.137411667e0,7.910249829e-1,-2.083363533e-1,-3.308795094e-1,8.823864287e-1
2.147444667e0,1.303600192e0,-4.727603495e-1,-1.915792972e-1,1.399849433e0
2.157477667e0,1.874461651e0,-4.785609543e-1,-8.514393866e-2,1.936459800e0
2.167510667e0,2.467157841e0,-2.489655316e-1,-2.195374481e-2,2.479784993e0
2.177543667e0,3.033617020e0,1.236806810e-2,3.126393631e-2,3.033803327e0
2.187576667e0,3.556991577e0,5.555395409e-2,1.131696776e-1,3.559225014e0
2.197609667e0,4.050384045e0,-1.226943433e-1,2.549363971e-1,4.060253364e0
2.207642042e0,4.529213428e0,-4.439954162e-1,3.926844001e-1,4.567833978e0
2.217675042e0,5.016299248e0,-8.361605406e-1,4.990547895e-1,5.109939166e0
2.227708042e0,5.587979317e0,-1.083603382e0,6.077955961e-1,5.724432253e0
2.237741042e0,6.340232849e0,-1.224121928e0,7.428501248e-1,6.499911798e0
2.247774042e0,7.358296871e0,-1.192623496e0,9.491952062e-1,7.514509644e0
2.257807042e0,8.719995499e0,-1.209697127e0,1.208018780e0,8.886000113e0
2.267840042e0,1.041621780e1,-1.512124777e0,1.232722998e0,1.059734498e1
2.277873042e0,1.236681080e1,-2.650070667e0,7.262209654e-1,1.266839693e1
2.287906042e0,1.436247063e1,-4.289429188e0,-1.548000574e-1,1.499012102e1
2.297939042e0,1.596539783e1,-6.959698677e0,-1.030400276e0,1.744686386e1
2.307972042e0,1.681242943e1,-1.126740742e1,-1.927052379e0,2.033041525e1
2.318005042e0,1.675115967e1,-1.367680454e1,-3.117642641e0,2.184893655e1
2.328038042e0,1.620563126e1,-1.428046417e1,-4.428918362e0,2.204925076e1
2.338071042e0,1.544329643e1,-1.502320576e1,-5.757145882e0,2.230105030e1
2.348104042e0,1.443198586e1,-1.591861820e1,-7.081162930e0,2.262360470e1
2.358137042e0,1.315067196e1,-1.691163445e1,-8.384440422e0,2.300526883e1
2.368170042e0,1.155906010e1,-1.793971252e1,-9.634140968e0,2.341499152e1
2.378203042e0,9.648672104e0,-1.893882751e1,-1.078145790e1,2.383308405e1
2.388236042e0,7.437106133e0,-1.980774879e1,-1.175695610e1,2.420502999e1
2.398269042e0,4.961155415e0,-2.048475647e1,-1.251306438e1,2.451152976e1
2.408302042e0,2.285729408e0,-2.089275169e1,-1.298395157e1,2.470454676e1
2.418335042e0,-4.951535761e-1,-2.099127579e1,-1.313620949e1,2.476769743e1
2.428368042e0,-3.258521080e0,-2.075947571e1,-1.295171452e1,2.468442222e1
2.438401042e0,-5.893185616e0,-2.020806503e1,-1.245531178e1,2.445874732e1
2.448434042e0,-8.313926697e0,-1.939175224e1,-1.168200016e1,2.411701806e1
2.458467042e0,-1.044843102e1,-1.839680290e1,-1.069226074e1,2.370520001e1
2.468500042e0,-1.226146984e1,-1.729063416e1,-9.543999672e0,2.324645353e1
2.478533042e0,-1.376717377e1,-1.616726494e1,-8.303480148e0,2.280051122e1
2.488566042e0,-1.496871185e1,-1.510484219e1,-7.015927315e0,2.239289682e1
2.498599042e0,-1.590461922e1,-1.414600277e1,-5.717707157e0,2.203992926e1
2.508632042e0,-1.660810280e1,-1.333341122e1,-4.425907612e0,2.175310533e1
2.518665042e0,-1.710688019e1,-1.269915867e1,-3.151326656e0,2.153705737e1
2.528698042e0,-1.742753601e1,-1.224841404e1,-1.897654772e0,2.138559682e1
2.538731042e0,-1.758903503e1,-1.199928188e1,-6.586263180e-1,2.130236390e1
2.548764042e0,-1.758993340e1,-1.194984436e1,5.746206045e-1,2.127286360e1
2.558797042e0,-1.744260597e1,-1.210889530e1,1.803853512e0,2.131017916e1
2.568830042e0,-1.713535690e1,-1.246566105e1,3.046130657e0,2.140775732e1
2.578863042e0,-1.666385460e1,-1.301848888e1,4.303747654e0,2.157979024e1
2.588896042e0,-1.599088573e1,-1.374464512e1,5.576199055e0,2.181095348e1
2.598929042e0,-1.510166454e1,-1.463271236e1,6.855639458e0,2.211733111e1
2.608962042e0,-1.395638371e1,-1.563264942e1,8.125514030e0,2.247630647e1
2.618995042e0,-1.252856636e1,-1.670829773e1,9.357427597e0,2.288435359e1
2.629028042e0,-1.079945755e1,-1.777998352e1,1.050303936e1,2.330386091e1
2.639061042e0,-8.767752647e0,-1.878034401e1,1.150978374e1,2.370759223e1
2.649094042e0,-6.456859112e0,-1.961475182e1,1.231689072e1,2.404444458e1
2.659127042e0,-3.922741890e0,-2.021443367e1,1.287175369e1,2.428360096e1
2.669160042e0,-1.245657802e0,-2.051797295e1,1.312246227e1,2.438724858e1
2.679193042e0,1.464476109e0,-2.050453949e1,1.305790234e1,2.435343186e1
2.689226042e0,4.099674225e0,-2.016533279e1,1.267433453e1,2.416788636e1
2.699259042e0,6.567611217e0,-1.955935478e1,1.200914955e1,2.387302975e1
2.709292042e0,8.785822868e0,-1.874031258e1,1.111547565e1,2.349348416e1
2.719325042e0,1.071501541e1,-1.778665733e1,1.004903698e1,2.306859074e1
2.729358042e0,1.233391285e1,-1.676883125e1,8.869696617e0,2.262720986e1
2.739391042e0,1.366286564e1,-1.576683044e1,7.630468369e0,2.221465479e1
2.749424042e0,1.471363640e1,-1.483287716e1,6.368434906e0,2.184175597e1
2.759457042e0,1.552010155e1,-1.401454735e1,5.107386112e0,2.152594905e1
2.769490042e0,1.611473083e1,-1.334116650e1,3.865292311e0,2.127467410e1
2.779523042e0,1.652550316e1,-1.283202553e1,2.641952276e0,2.108869473e1
2.789556042e0,1.676810455e1,-1.250197506e1,1.436824918e0,2.096504654e1
2.799589042e0,1.685896111e1,-1.236012840e1,2.504891455e-1,2.090598212e1
2.809622042e0,1.679286003e1,-1.240084362e1,-9.322098494e-1,2.089617395e1
2.819655042e0,1.658734322e1,-1.261925888e1,-2.119669437e0,2.094943074e1
2.829688042e0,1.621936417e1,-1.300060558e1,-3.314220667e0,2.104917049e1
2.839721042e0,1.567727184e1,-1.354341125e1,-4.516899586e0,2.120384924e1
2.849754042e0,1.493660069e1,-1.421470261e1,-5.730159283e0,2.140080689e1
2.859787042e0,1.398589706e1,-1.500604439e1,-6.940415382e0,2.165539311e1
2.869820042e0,1.279018402e1,-1.588072300e1,-8.127748489e0,2.195100148e1
2.879853042e0,1.133604813e1,-1.680505753e1,-9.269015312e0,2.228969696e1
2.889886042e0,9.609397888e0,-1.773027611e1,-1.032470036e1,2.265618362e1
2.899919042e0,7.620031834e0,-1.859457970e1,-1.124583244e1,2.302807041e1
2.909952042e0,5.392482281e0,-1.931911278e1,-1.198195839e1,2.336395323e1
2.919985042e0,2.977539539e0,-1.983730125e1,-1.248592091e1,2.362800211e1
2.930018042e0,4.549550414e-1,-2.007249451e1,-1.272032642e1,2.376801894e1
2.940051042e0,-2.085085154e0,-1.999646950e1,-1.266294289e1,2.376039762e1
2.950084042e0,-4.536820412e0,-1.959751129e1,-1.232260132e1,2.359007612e1
2.960116042e0,-6.835764408e0,-1.891389465e1,-1.172437859e1,2.327926415e1
2.970149042e0,-8.909710884e0,-1.801233101e1,-1.091678238e1,2.286926221e1
2.980182042e0,-1.072830868e1,-1.697982025e1,-9.953874588e0,2.241630037e1
2.990215042e0,-1.227761555e1,-1.592250252e1,-8.880066872e0,2.198002542e1
3.000248042e0,-1.356865120e1,-1.492841911e1,-7.744279385e0,2.160879117e1
3.010281042e0,-1.462248325e1,-1.404999352e1,-6.573507309e0,2.131737162e1
3.020314042e0,-1.546059704e1,-1.333283234e1,-5.391419411e0,2.111544179e1
3.030347042e0,-1.610059166e1,-1.277080917e1,-4.200645447e0,2.097541515e1
3.040380042e0,-1.656579781e1,-1.236111736e1,-3.015809059e0,2.088822596e1
3.050413042e0,-1.685960197e1,-1.211635399e1,-1.820743322e0,2.084148073e1
3.060446042e0,-1.701646042e1,-1.202892113e1,-6.252914667e-1,2.084816198e1
3.070479042e0,-1.699458694e1,-1.206983185e1,5.786609054e-1,2.085261793e1
3.080512042e0,-1.680880165e1,-1.223918533e1,1.776089549e0,2.086834839e1
3.090545042e0,-1.645161438e1,-1.255509281e1,2.977117777e0,2.090811329e1
3.100578042e0,-1.593038273e1,-1.303331184e1,4.185480595e0,2.100387010e1
3.110611042e0,-1.522382641e1,-1.368478107e1,5.395650864e0,2.116958129e1
3.120644042e0,-1.433035469e1,-1.448202610e1,6.603356838e0,2.141710688e1
3.130677042e0,-1.321594524e1,-1.536965084e1,7.784107208e0,2.171358332e1
3.140710042e0,-1.187737370e1,-1.632632446e1,8.924424171e0,2.207410753e1
3.150743042e0,-1.029357243e1,-1.729468536e1,9.983365059e0,2.246622694e1
3.160776042e0,-8.463233948e0,-1.820285416e1,1.092030430e1,2.285220502e1
3.170809042e0,-6.396785259e0,-1.894217110e1,1.168299484e1,2.315636146e1
3.180842042e0,-4.134953976e0,-1.943444443e1,1.222474384e1,2.332894847e1
3.190875042e0,-1.737072825e0,-1.963266945e1,1.250783348e1,2.334320094e1
3.200908042e0,7.107861638e-1,-1.955625916e1,1.251746845e1,2.323014218e1
3.210941417e0,3.120984793e0,-1.926809502e1,1.225208759e1,2.304590380e1
3.220974417e0,5.428080559e0,-1.885824203e1,1.173668671e1,2.286585153e1
3.231007417e0,7.762052059e0,-1.868581772e1,1.115329552e1,2.310422552e1
3.241040417e0,1.014607811e1,-2.166147995e1,1.064012909e1,2.617966695e1
3.251073417e0,1.471740437e1,-3.454428864e1,9.489062309e0,3.872921600e1
3.261106417e0,6.477213860e0,-2.716092110e1,-9.371521324e-2,2.792272760e1
3.271139417e0,-1.480980992e0,1.073823929e1,1.267317891e0,1.091371533e1
3.281172417e0,-3.537525177e0,1.149741077e1,-1.070743680e0,1.207688002e1
3.291205417e0,-3.382554054e0,7.949151039e0,-2.808066130e0,9.083826813e0
3.301238417e0,-4.481311321e0,5.795255184e0,-3.464171886e0,8.103556051e0
3.311271417e0,-4.438677788e0,5.094879150e0,-3.595554829e0,7.654258200e0
3.321304417e0,-4.232882500e0,5.225584030e0,-3.721024990e0,7.685704242e0
3.331337417e0,-4.011166573e0,5.359786510e0,-3.850019455e0,7.722656183e0
3.341370417e0,-3.778692722e0,5.484738350e0,-3.974537134e0,7.756147168e0
3.351403417e0,-3.534216166e0,5.602088451e0,-4.092391968e0,7.785997106e0
3.361436417e0,-3.286407471e0,5.711586952e0,-4.204997063e0,7.816949525e0
3.371469417e0,-3.027230263e0,5.824721336e0,-4.312989235e0,7.854513215e0
3.381502417e0,-2.752817631e0,5.937063217e0,-4.413594723e0,7.893449368e0
3.391535417e0,-2.471848011e0,6.049695969e0,-4.505924225e0,7.938022866e0
3.401568417e0,-2.190636635e0,6.147981644e0,-4.592402935e0,7.980396724e0
3.411601417e0,-1.894216299e0,6.241769314e0,-4.667354107e0,8.020719040e0
3.421634417e0,-1.595236540e0,6.322468758e0,-4.734635353e0,8.058235709e0
3.431667417e0,-1.295830965e0,6.388914585e0,-4.788960934e0,8.088977333e0
3.441700417e0,-9.846640229e-1,6.445683956e0,-4.836538792e0,8.118405778e0
3.451733417e0,-6.720906496e-1,6.488022804e0,-4.872410774e0,8.141654163e0
3.461766417e0,-3.581362069e-1,6.513421059e0,-4.895572662e0,8.155951638e0
3.471799417e0,-4.068986699e-2,6.527014256e0,-4.908256054e0,8.166673022e0
3.481832417e0,2.745468915e-1,6.531191826e0,-4.910690308e0,8.175984464e0
3.491865417e0,5.889118910e-1,6.517067432e0,-4.899219513e0,8.174431905e0
3.501898417e0,9.008511305e-1,6.488743782e0,-4.875996590e0,8.166435659e0
3.511931417e0,1.210265160e0,6.443993092e0,-4.842048645e0,8.150780564e0
3.521964417e0,1.517593861e0,6.387855053e0,-4.794505119e0,8.129887001e0
3.531997417e0,1.810076594e0,6.315563679e0,-4.737033844e0,8.099519214e0
3.542030417e0,2.105382681e0,6.232355118e0,-4.671067715e0,8.068070410e0
3.552063417e0,2.389930248e0,6.135772705e0,-4.592816830e0,8.028289962e0
3.562096417e0,2.661582708e0,6.028566360e0,-4.510969162e0,7.986017634e0
3.572129417e0,2.925657272e0,5.910604954e0,-4.415153980e0,7.936517250e0
3.582162417e0,3.178766489e0,5.786163807e0,-4.314422607e0,7.886601957e0
3.592195417e0,3.418623924e0,5.656417847e0,-4.207033634e0,7.834614502e0
3.602228417e0,3.650750399e0,5.516103745e0,-4.095689774e0,7.780106279e0
3.612261417e0,3.866499901e0,5.374360085e0,-3.974848986e0,7.722240106e0
3.622294417e0,4.071669102e0,5.228511333e0,-3.856559038e0,7.667389885e0
3.632327417e0,4.266443729e0,5.077746391e0,-3.733579159e0,7.610891133e0
3.642360417e0,4.448507309e0,4.925819397e0,-3.606458902e0,7.553771232e0
3.652393417e0,4.616744518e0,4.769108772e0,-3.478713751e0,7.494009460e0
3.662426417e0,4.777602196e0,4.615972996e0,-3.352043629e0,7.441027209e0
3.672459417e0,4.926258564e0,4.459620476e0,-3.225331068e0,7.386406347e0
3.682492417e0,5.060723305e0,4.305373669e0,-3.097293139e0,7.330783558e0
3.692525417e0,5.192404747e0,4.156411648e0,-2.970308542e0,7.284199179e0
3.702558417e0,5.309804440e0,4.008285522e0,-2.845122576e0,7.235682310e0
3.712591417e0,5.417396545e0,3.866457224e0,-2.724385738e0,7.191658671e0
3.722624417e0,5.525356770e0,3.723687649e0,-2.601225853e0,7.152747240e0
3.732657417e0,5.616185665e0,3.584581614e0,-2.482768059e0,7.110197185e0
3.742690417e0,5.708981991e0,3.447800398e0,-2.361940384e0,7.075207794e0
3.752723417e0,5.787988186e0,3.312980652e0,-2.249577045e0,7.038270023e0
3.762756417e0,5.865720749e0,3.184120655e0,-2.139079571e0,7.008635078e0
3.772789417e0,6.381741524e0,2.526005507e0,-2.313140869e0,7.242786023e0
3.782822417e0,7.209717274e0,1.672235966e0,-3.054699898e0,8.006721411e0
3.792855417e0,8.753890991e0,2.520601988e0,-1.548906922e0,9.240300564e0
3.802888417e0,1.324136639e1,4.670210361e0,2.590483129e-1,1.404321027e1
3.812921417e0,2.147027969e1,7.534182549e0,1.175174236e0,2.278415790e1
3.822954417e0,2.975446892e1,1.059787273e1,3.437742233e0,3.177202226e1
3.832987417e0,2.465270805e1,2.642985582e0,4.425278187e0,2.518579906e1
3.843020417e0,6.510597229e0,-1.770506477e1,1.779247999e0,1.894790010e1
3.853053417e0,-4.885687828e0,-1.696425438e1,5.308839083e-1,1.766175840e1
3.863086417e0,-3.610464096e0,-2.692332268e0,-3.801523745e-1,4.519803077e0
3.873119417e0,-1.801156759e0,3.440149069e0,-7.597402334e-1,3.956765915e0
3.883152417e0,-1.130299330e0,5.797161102e0,-5.562819242e-1,5.932461799e0
3.893185417e0,-6.907991767e-1,6.357208729e0,-2.819506824e-1,6.400843891e0
3.903218417e0,-4.187660515e-1,6.707379818e0,4.128570110e-2,6.720566460e0
3.913251417e0,-1.704265028e-1,7.044320583e0,2.877162993e-1,7.052253423e0
3.923284417e0,3.076108992e-1,7.665544510e0,5.254647136e-1,7.689688567e0
3.933317417e0,8.512814045e-1,8.356908798e0,8.968942761e-1,8.447900570e0
3.943350417e0,1.119747162e0,8.462459564e0,1.417514086e0,8.653115148e0
3.953383417e0,1.267033815e0,7.381380558e0,1.872139692e0,7.719783718e0
3.963416417e0,1.486152887e0,5.015054703e0,2.117821693e0,5.643101346e0
3.973449417e0,1.244449496e0,2.189255238e0,2.200610876e0,3.344275897e0
3.983482417e0,4.431993365e-1,-5.228174925e-1,2.182728052e0,2.287808019e0
3.993515417e0,-3.382986188e-1,-3.189598322e0,2.057079792e0,3.810454131e0
4.003548417e0,-5.854567289e-1,-5.432526112e0,1.656469703e0,5.709552645e0
4.013581417e0,-5.709757805e-1,-6.636156082e0,9.971759319e-1,6.734904656e0
4.023614417e0,-1.111553788e0,-7.582548618e0,3.436415493e-1,7.671289650e0
4.033647417e0,-1.914202094e0,-8.289564133e0,-1.328348964e-1,8.508741874e0
4.043680417e0,-2.523738861e0,-8.072874069e0,-4.206437767e-1,8.468618232e0
4.053713417e0,-2.817468405e0,-6.833273888e0,-5.058929324e-1,7.408622537e0
4.063746417e0,-2.611291885e0,-5.027915001e0,-3.557364047e-1,5.676735237e0
4.073779417e0,-2.023977995e0,-3.287667274e0,8.064192953e-4,3.860730978e0
4.083812417e0,-1.203922987e0,-2.090596437e0,4.141881168e-1,2.447769560e0
4.093845417e0,-2.224177569e-1,-1.469051838e0,5.559644699e-1,1.586404568e0
4.103878417e0,6.900944114e-1,-1.163103342e0,3.814035952e-1,1.405172012e0
4.113910417e0,1.266664267e0,-5.651177168e-1,5.342662707e-2,1.388038473e0
4.123943417e0,1.353401065e0,3.799071312e-1,-1.746416986e-1,1.416518123e0
4.133976417e0,1.108466268e0,1.274473310e0,-2.840465605e-1,1.712793663e0
4.144009417e0,7.362193465e-1,1.925540566e0,-3.088808060e-1,2.084498201e0
4.154042417e0,3.513011634e-1,2.316601276e0,-2.739564776e-1,2.359047717e0
4.164075417e0,-4.199417774e-3,2.525757074e0,-2.245633751e-1,2.535723791e0
4.174108417e0,-3.023219407e-1,2.582328558e0,-2.040648162e-1,2.607961232e0
4.184141417e0,-5.547578931e-1,2.458799124e0,-2.357862592e-1,2.531609095e0
4.194174417e0,-7.485787868e-1,2.163705111e0,-2.800171971e-1,2.306599149e0
4.204207417e0,-8.745601177e-1,1.742864728e0,-3.112028241e-1,1.974659479e0
4.214240208e0,-9.103158116e-1,1.204529762e0,-3.182288706e-1,1.542995930e0
4.224273208e0,-8.191099763e-1,5.136495829e-1,-2.994548976e-1,1.012151314e0
4.234306208e0,-6.463341713e-1,-2.430112362e-1,-2.381948829e-1,7.304376251e-1
4.244339208e0,-4.322538674e-1,-8.953035474e-1,-1.379242092e-1,1.003710583e0
4.254372208e0,-1.654891074e-1,-1.345417976e0,-1.602691598e-2,1.355652256e0
4.264405208e0,1.485258192e-1,-1.590561986e0,1.101880074e-1,1.601277224e0
4.274438208e0,4.389551580e-1,-1.699457645e0,2.259166390e-1,1.769710781e0
4.284471208e0,6.576518416e-1,-1.716550112e0,3.154425323e-1,1.865088261e0
4.294504208e0,7.835328579e-1,-1.613538146e0,3.574324250e-1,1.828985245e0
4.304537208e0,8.009869456e-1,-1.383248448e0,3.451251686e-1,1.635257698e0
4.314570208e0,6.950548291e-1,-1.042916775e0,2.823192775e-1,1.284710391e0
4.324603208e0,4.937043786e-1,-6.085562706e-1,1.872428209e-1,8.056951172e-1
4.334636208e0,2.382813841e-1,-1.404844820e-1,8.234111965e-2,2.886069433e-1
4.344669208e0,-3.396399319e-2,3.075966239e-1,-1.257527340e-2,3.097214448e-1
4.354702208e0,-2.887732387e-1,6.719944477e-1,-9.848144650e-2,7.380143064e-1
4.364735208e0,-4.753638804e-1,8.944789171e-1,-1.666168123e-1,1.026559552e0
4.374768208e0,-5.824055076e-1,1.000592232e0,-2.150201946e-1,1.177546039e0
4.384801208e0,-5.953463316e-1,1.009059668e0,-2.350192070e-1,1.194936272e0
4.394834208e0,-5.368140936e-1,9.227653146e-1,-2.339810282e-1,1.092891723e0
4.404867208e0,-4.139614403e-1,7.557750344e-1,-2.071906924e-1,8.862775862e-1
4.414900208e0,-2.615790963e-1,5.181761384e-1,-1.599793583e-1,6.020992685e-1
4.424933208e0,-9.801706672e-2,2.491395921e-1,-8.740475774e-2,2.816335800e-1
4.434966208e0,6.144253910e-2,-2.298546024e-2,-1.165594906e-3,6.561155085e-2
4.444999208e0,1.857858002e-1,-2.669445872e-1,7.946613431e-2,3.347994067e-1
4.455032208e0,2.784089744e-1,-4.676854908e-1,1.445477903e-1,5.631477063e-1
4.465065208e0,3.240970969e-1,-6.057986617e-1,1.872851402e-1,7.121142257e-1
4.475098208e0,3.308335245e-1,-6.673051119e-1,1.928762645e-1,7.693816911e-1
4.485131208e0,3.015810847e-1,-6.632791758e-1,1.676065922e-1,7.476512458e-1
4.495164208e0,2.390483618e-1,-5.986910462e-1,1.196277067e-1,6.556568282e-1
4.505197208e0,1.630196422e-1,-4.708862007e-1,6.818502396e-2,5.029497144e-1
4.515230208e0,7.450244576e-2,-3.026656508e-1,2.087139338e-2,3.123983446e-1
4.525263208e0,-1.443461794e-2,-1.212079749e-1,-1.708557643e-2,1.232544047e-1
4.535296208e0,-9.432846308e-2,5.470427126e-2,-4.163304344e-2,1.167207203e-1
4.545329208e0,-1.538368016e-1,2.218543738e-1,-6.206401438e-2,2.770145603e-1
4.555362208e0,-1.816578656e-1,3.693915904e-1,-7.259028405e-2,4.179941106e-1
4.565395208e0,-1.839316636e-1,4.646749496e-1,-7.371786237e-2,5.051613494e-1
4.575428208e0,-1.675353944e-1,4.844796062e-1,-6.835823506e-2,5.171667482e-1
4.585461208e0,-1.357950419e-1,4.216748178e-1,-5.877751485e-2,4.468833647e-1
4.595494208e0,-9.794104099e-2,3.193684220e-1,-4.353214428e-2,3.368733947e-1
4.605527208e0,-4.582963511e-2,1.994196475e-1,-2.017622255e-2,2.056103869e-1
4.615560208e0,1.055610483e-3,7.182006538e-2,-3.806974506e-3,7.192863935e-2
4.625593208e0,3.997078538e-2,-5.781568587e-2,4.449889995e-3,7.042811042e-2
4.635626208e0,6.963916868e-2,-1.737603247e-1,1.250768825e-2,1.876131832e-1
4.645659208e0,8.731003851e-2,-2.664846480e-1,2.296539024e-2,2.813619014e-1
4.655692208e0,9.437903762e-2,-3.210278451e-1,3.285758197e-2,3.362229927e-1
4.665725208e0,9.504403174e-2,-3.282828331e-1,4.292432964e-2,3.444495385e-1
4.675758208e0,9.235139936e-2,-2.929484844e-1,4.909606278e-2,3.110595102e-1
4.685791208e0,7.675246894e-2,-2.237806171e-1,4.633356258e-2,2.410715767e-1
4.695824208e0,5.545266718e-2,-1.361784637e-1,4.105953127e-2,1.526612504e-1
4.705857208e0,2.853263542e-2,-4.890428111e-2,2.777568437e-2,6.306527283e-2
4.715890208e0,-9.854516247e-4,3.549203277e-2,1.178096794e-2,3.740917949e-2
4.725923208e0,-2.705966122e-2,1.154630259e-1,-3.545790911e-3,1.186444615e-1
4.735956208e0,-5.171822011e-2,1.755842716e-1,-1.740944386e-2,1.838687016e-1
4.745989208e0,-6.358952820e-2,2.045996785e-1,-2.556830458e-2,2.157739436e-1
4.756022208e0,-7.213020325e-2,1.940356493e-1,-3.548347205e-2,2.100277987e-1
4.766055208e0,-7.730925828e-2,1.622564197e-1,-3.802199662e-2,1.837104770e-1
4.776088208e0,-7.035975158e-2,1.150456369e-1,-3.801673651e-2,1.401116179e-1
4.786121208e0,-4.857162759e-2,6.752233207e-2,-3.137987107e-2,8.889974490e-2
4.796154208e0,-2.203036100e-2,1.377322059e-2,-2.089180425e-2,3.333925458e-2
4.806187208e0,4.080069251e-3,-3.943513706e-2,-7.005815860e-3,4.025988644e-2
4.816220208e0,3.413626924e-2,-8.692762256e-2,8.369008079e-3,9.376426151e-2
4.826253208e0,5.087450147e-2,-1.204214022e-1,2.431761473e-2,1.329694528e-1
4.836286208e0,6.412244588e-2,-1.351305693e-1,3.556992114e-2,1.537438718e-1
4.846319208e0,6.671450287e-2,-1.296655089e-1,3.817475960e-2,1.507357998e-1
4.856352208e0,5.963021144e-2,-1.121076196e-1,3.477890790e-2,1.316565719e-1
4.866385208e0,4.340783134e-2,-8.373349905e-2,2.343250811e-2,9.718344057e-2
4.876418208e0,2.321206219e-2,-4.898563772e-2,1.001115888e-2,5.512364136e-2
4.886451208e0,-2.119393554e-3,-7.725015283e-3,-9.979773313e-5,8.011095414e-3
4.896484208e0,-2.272771858e-2,2.721497789e-2,-7.681215182e-3,3.627954355e-2
4.906517208e0,-4.003320634e-2,5.508069694e-2,-1.346799824e-2,6.941129420e-2
4.916550208e0,-4.863421246e-2,7.561621070e-2,-1.594365947e-2,9.130880691e-2
4.926583208e0,-4.875858128e-2,8.718045056e-2,-1.932427660e-2,1.017411317e-1
4.936616208e0,-4.222708941e-2,8.693496138e-2,-1.650547422e-2,9.804715839e-2
4.946649208e0,-3.020824492e-2,7.201220840e-2,-1.121989638e-2,7.889348702e-2
4.956682208e0,-1.442080084e-2,4.534326121e-2,-4.586158786e-3,4.780171217e-2
4.966715208e0,2.879625885e-3,1.610468328e-2,5.609323271e-4,1.636971942e-2
4.976748208e0,1.645511948e-2,-1.424956229e-2,5.833054893e-3,2.253542792e-2
4.986781208e0,2.541825548e-2,-4.203352332e-2,7.230148651e-3,4.965057748e-2
4.996814208e0,3.205147013e-2,-6.051352993e-2,1.016899291e-2,6.922855234e-2
5.006847208e0,3.189407662e-2,-7.202477753e-2,1.188273728e-2,7.966178599e-2
5.016880208e0,2.453388087e-2,-7.181925327e-2,9.211262688e-3,7.645105500e-2
5.026913208e0,2.111038752e-2,-6.440049410e-2,9.098078124e-3,6.838016618e-2
5.036946208e0,1.107445173e-2,-4.755513370e-2,6.636737846e-3,4.927657163e-2
5.046979208e0,2.221039496e-3,-2.212274447e-2,3.966854420e-4,2.223749533e-2
5.057012208e0,-9.543722495e-3,1.860164804e-3,3.392195795e-4,9.729230293e-3
5.067045208e0,-1.302101184e-2,2.287889831e-2,-1.885585021e-3,2.639216111e-2
5.077078208e0,-1.716246270e-2,3.892357647e-2,-5.505492911e-3,4.289411829e-2
5.087111208e0,-1.841760986e-2,4.765980691e-2,-4.386165645e-3,5.128258960e-2
5.097144208e0,-1.793351024e-2,4.961444065e-2,-5.668467842e-3,5.305973085e-2
5.107177208e0,-1.211184077e-2,4.044491053e-2,-2.839125227e-3,4.231486862e-2
5.117210208e0,-8.760910481e-3,2.508705482e-2,-3.255341668e-3,2.677146095e-2
5.127243208e0,-3.535788273e-3,7.784763351e-3,-1.966371667e-3,8.773309334e-3
5.137276208e0,1.289653592e-3,-8.807405829e-3,1.334071276e-3,9.000741636e-3
5.147309208e0,7.456202991e-3,-2.786551975e-2,1.550586312e-3,2.888747950e-2
5.157342208e0,1.127390936e-2,-3.539499268e-2,1.848304411e-3,3.719304731e-2
5.167375208e0,1.376023702e-2,-4.099375755e-2,3.256051335e-3,4.336397296e-2
5.177408208e0,1.409730688e-2,-4.121709615e-2,5.628355779e-3,4.392335899e-2
5.187441208e0,1.068313420e-2,-3.224756569e-2,5.423825234e-3,3.440134778e-2
5.197474208e0,1.005842630e-2,-2.329526097e-2,4.081574734e-3,2.570020185e-2
5.207507208e0,8.687963709e-3,-1.176563744e-2,2.093524905e-3,1.477476850e-2
5.217539667e0,9.556486621e-4,3.876647679e-3,3.669732017e-3,5.422969175e-3
5.227572667e0,-5.822362378e-3,1.244164072e-2,-5.961193237e-4,1.374953402e-2
5.237605667e0,-7.607751060e-3,1.935498044e-2,-2.172434004e-3,2.090962968e-2
5.247638667e0,-1.377882808e-2,2.181574143e-2,-2.337283688e-3,2.590840738e-2
5.257671667e0,-1.364843827e-2,1.972551830e-2,-2.969969995e-3,2.417016055e-2
5.267704667e0,-1.118474733e-2,1.822243072e-2,-4.968405701e-3,2.195086808e-2
5.277737667e0,-6.928891875e-3,9.933064692e-3,-2.423242899e-3,1.235100898e-2
5.287770667e0,-5.136051681e-3,1.978468848e-3,-2.954543335e-3,6.246814562e-3
5.297803667e0,2.566984156e-3,-7.984020747e-3,2.323216060e-3,8.702374838e-3
5.307836667e0,8.170275018e-3,-1.385442633e-2,2.543992130e-3,1.628405413e-2
5.317869667e0,8.137606084e-3,-1.897484250e-2,3.231197596e-3,2.089750987e-2
5.327902667e0,8.465707302e-3,-2.442260459e-2,6.042962894e-3,2.654522962e-2
5.337935667e0,9.935921058e-3,-2.220016904e-2,5.385991186e-3,2.491142175e-2
5.347968667e0,7.714844774e-3,-1.905870438e-2,3.170773620e-3,2.080401038e-2
5.358001667e0,6.411366165e-3,-1.311686914e-2,2.201682655e-3,1.476500182e-2
5.368034667e0,2.671222668e-3,-7.445400581e-3,1.113248640e-3,7.988037486e-3
5.378067667e0,-1.578916330e-3,-2.458111849e-4,3.281487152e-4,1.631282163e-3
5.388100667e0,-4.745148588e-3,4.045606591e-3,-2.959523350e-3,6.902329047e-3
5.398133667e0,-5.301730707e-3,8.880121633e-3,-3.793566488e-3,1.101617245e-2
5.408166667e0,-6.203210447e-3,1.282106712e-2,-2.306723502e-3,1.442846338e-2
5.418199667e0,-8.516977541e-3,1.546241809e-2,-3.712338628e-3,1.803903372e-2
5.428232667e0,-6.282584742e-3,1.219658367e-2,-1.407905249e-3,1.379165405e-2
5.438265667e0,-2.882188419e-3,7.479155436e-3,6.102242041e-4,8.038479315e-3
5.448298667e0,-1.805472188e-3,2.516621258e-3,3.377827816e-4,3.115639515e-3
5.458331667e0,1.186512411e-3,-4.126615822e-3,1.820037374e-3,4.663615109e-3
5.468364667e0,6.615366321e-3,-7.971155457e-3,5.248590838e-3,1.161249743e-2
5.478397667e0,7.472635712e-3,-1.380183361e-2,3.688525409e-3,1.612253439e-2
5.488430667e0,9.073994122e-3,-1.572729833e-2,3.065079451e-3,1.841412486e-2
5.498463667e0,6.358810700e-3,-1.683176495e-2,1.430050354e-3,1.804959359e-2
5.508496667e0,4.124418367e-3,-1.464983542e-2,1.773864496e-3,1.532237253e-2
5.518529667e0,3.065467579e-3,-9.389494546e-3,5.967009347e-4,9.895238820e-3
5.528562667e0,6.571708946e-4,-8.527962491e-3,1.235326985e-3,8.641993438e-3
5.538595667e0,-7.228701725e-5,-5.913881585e-3,1.987610944e-3,6.239376417e-3
5.548628667e0,-2.910950454e-3,-1.169992611e-3,-5.453214981e-4,3.184319518e-3
5.558661667e0,-2.288036980e-3,2.497978974e-3,-3.627930302e-3,4.963556230e-3
5.568694667e0,-3.526673187e-3,7.407782599e-3,-3.888121340e-3,9.079105372e-3
5.578727667e0,-2.262067283e-3,9.919199161e-3,-4.952221643e-4,1.018590719e-2
5.588760667e0,-2.669264562e-3,9.329841472e-3,-2.435534261e-4,9.707225838e-3
5.598793667e0,-3.454531543e-3,5.525000393e-3,8.644296322e-4,6.573177019e-3
5.608826667e0,-4.233240150e-3,5.330589600e-3,-1.540404977e-3,6.979137135e-3
5.618859667e0,-1.452948782e-3,-1.320663025e-3,1.386222662e-3,2.403502498e-3
5.628892667e0,8.893014165e-4,-8.419585414e-3,2.900655381e-4,8.471387937e-3
5.638925667e0,4.639673047e-3,-1.027221791e-2,1.457235194e-3,1.136523477e-2
5.648958667e0,4.697463475e-3,-1.611625776e-2,2.119563287e-3,1.692017954e-2
5.658991667e0,5.895796232e-3,-1.524998154e-2,2.271782840e-3,1.650706962e-2
5.669024667e0,2.019565785e-3,-1.344355941e-2,1.407587086e-3,1.366708590e-2
5.679057667e0,3.531157272e-3,-8.504806086e-3,3.071470885e-3,9.707457527e-3
5.689090667e0,1.107414253e-3,-4.733503796e-3,1.203796128e-3,5.008148324e-3
5.699123667e0,-1.785332803e-3,-9.937115246e-4,4.154515453e-3,4.629781254e-3
5.709156667e0,-5.325818784e-4,2.880678512e-4,1.121441368e-3,1.274463529e-3
5.719189667e0,-2.517568180e-3,2.422495978e-3,-1.021913253e-3,3.640184474e-3
5.729222667e0,-4.650698975e-4,-6.603794172e-4,-2.042969223e-3,2.196841877e-3
5.739255667e0,-3.787190653e-3,3.263781313e-3,-4.198633134e-3,6.528675340e-3
5.749288667e0,-4.807448015e-3,2.997199073e-3,-8.989765774e-4,5.736106483e-3
5.759321667e0,-1.429603668e-3,2.715572016e-3,-1.535912044e-3,3.431781437e-3
5.769354667e0,-2.735085320e-3,2.091060625e-3,1.463872497e-3,3.741142731e-3
5.779387667e0,-9.759474779e-4,-6.024820032e-4,1.549067209e-3,1.927450975e-3
5.789420667e0,-6.044365000e-4,-1.860825578e-3,5.004785024e-3,5.373628983e-3
5.799453667e0,2.482785785e-4,-4.496482667e-3,1.096470747e-3,4.634894467e-3
5.809486667e0,2.185195684e-3,-9.108811617e-3,2.624060027e-3,9.727857949e-3
5.819519667e0,4.361987580e-3,-8.646466769e-3,1.357134315e-3,9.779066253e-3
5.829552667e0,5.312469788e-3,-9.772717021e-3,3.999256529e-3,1.182042241e-2
5.839584667e0,-1.771830022e-3,9.391082451e-3,5.887920037e-3,1.122494604e-2
5.849617667e0,4.355038516e-3,1.179495230e-1,6.658188999e-2,1.355145912e-1
5.859650667e0,7.992992550e-2,2.889101505e-1,3.079203665e-1,4.297357562e-1
5.869683667e0,1.167140380e-1,1.596983671e-1,4.441516995e-1,4.862061984e-1
5.879717667e0,-7.952769101e-2,-3.748133481e-1,1.468300223e-1,4.103276191e-1
5.889749667e0,-2.997828424e-1,-6.857938766e-1,-3.367302716e-1,8.207132688e-1
5.899782667e0,-3.978567421e-1,-4.132695198e-1,-5.932874680e-1,8.252706846e-1
5.909815667e0,-2.334541976e-1,1.631834209e-1,-3.545593321e-1,4.547988690e-1
5.919848667e0,4.126398638e-2,3.597110510e-1,4.028126597e-2,3.643039077e-1
5.929881667e0,-2.611292526e-2,-1.651167721e-1,7.960070670e-2,1.851531955e-1
5.939914667e0,-1.405055076e-1,-1.330600083e-1,-5.611884966e-2,2.014847110e-1
5.949947667e0,-8.874774911e-3,3.203296065e-1,-9.326195717e-2,3.337478256e-1
5.959980667e0,1.101463288e-1,3.389668763e-1,3.776199371e-2,3.584086008e-1
5.970013667e0,1.758507788e-1,2.341331542e-1,-1.540668588e-2,2.932220937e-1
5.980046667e0,2.199248374e-1,3.035297394e-1,-6.435500830e-2,3.803140858e-1
5.990079667e0,2.086695284e-1,2.931234241e-1,1.366374940e-1,3.848819541e-1
6.000112667e0,-1.533642528e-3,8.919299394e-2,8.464729041e-2,1.229752252e-1
6.010145667e0,-1.612434089e-1,-2.122566104e-2,-1.572199315e-1,2.262036084e-1
6.020178667e0,-2.306319922e-1,-1.490228325e-1,-2.194816619e-1,3.515268416e-1
6.030211667e0,-2.169422805e-1,-3.846889734e-2,-7.226238400e-2,2.318742359e-1
6.040244667e0,-3.064006194e-2,2.580928802e-1,1.863560528e-1,3.198113923e-1
6.050277667e0,1.902475655e-1,3.152125701e-2,3.354909420e-1,3.869649829e-1
6.060310667e0,2.956015170e-1,-5.577893257e-1,2.568843961e-1,6.815414746e-1
6.070343667e0,2.941045761e-1,-9.836407900e-1,6.618981063e-2,1.028799201e0
6.080376667e0,2.630345523e-1,-9.173297882e-1,-6.756146252e-2,9.566847272e-1
6.090409667e0,2.810159624e-1,-5.219454169e-1,-5.820071790e-3,5.928160445e-1
6.100442667e0,2.725848556e-1,-1.867102832e-1,1.334129423e-1,3.563176202e-1
6.110475667e0,1.910428554e-1,-3.352419659e-2,1.770232618e-1,2.625994660e-1
6.120508667e0,7.580271363e-2,3.159022704e-2,1.375925988e-1,1.602364412e-1
6.130541667e0,-4.110233858e-2,7.477737963e-2,3.047119640e-2,9.060658117e-2
6.140574667e0,-1.080965251e-1,1.511682272e-1,-7.214213908e-2,1.993518996e-1
6.150607667e0,-1.262358427e-1,1.955948174e-1,-9.547195584e-2,2.516102441e-1
6.160640667e0,-1.317131072e-1,1.288513243e-1,-5.743324384e-2,1.930015127e-1
6.170673667e0,-1.195579097e-1,4.630370811e-2,-2.863595262e-2,1.313702589e-1
6.180706667e0,-1.118990406e-1,3.018201701e-2,-1.890100725e-2,1.174291170e-1
6.190739667e0,-1.270700097e-1,-1.975717843e-1,4.208039492e-3,2.349448976e-1
6.200772667e0,-8.389081061e-2,-3.069865227e0,2.278849334e-1,3.079454777e0
6.210805792e0,1.967539042e-1,-3.621514320e0,4.157679975e-1,3.650608319e0
6.220838792e0,5.680428147e-1,-4.991170883e0,5.228964090e-1,5.050532653e0
6.230871792e0,9.954002500e-1,-5.747931480e0,3.318937123e-1,5.842918055e0
6.240904792e0,1.350765347e0,-5.422510147e0,-6.834581494e-2,5.588636190e0
6.250937792e0,1.491213560e0,-4.345652103e0,-6.203120351e-1,4.636075615e0
6.260970792e0,1.203141212e0,-2.588682652e0,-8.702169657e-1,2.984309671e0
6.271003792e0,6.306702495e-1,-1.045431852e0,-7.293431759e-1,1.422186412e0
6.281036792e0,-4.270137101e-2,-4.759782553e-1,-4.325204194e-1,6.445561417e-1
6.291069792e0,-4.939534962e-1,-4.814063013e-1,-1.251420826e-1,7.010011585e-1
6.301102792e0,-5.431560874e-1,-6.924615502e-1,3.132966161e-2,8.806265278e-1
6.311135792e0,-4.098156393e-1,-1.018399239e0,1.538584754e-2,1.097871847e0
6.321168792e0,-2.040465176e-1,-1.437705517e0,-1.414062828e-1,1.458981793e0
6.331201792e0,-4.037715867e-2,-1.921093702e0,-4.849610031e-1,1.981771557e0
6.341234792e0,7.975192368e-2,-2.459042549e0,-9.416469932e-1,2.634378425e0
6.351267792e0,3.421409428e-1,-2.880718946e0,-1.489625096e0,3.261071143e0
6.361300792e0,7.109736800e-1,-3.158708572e0,-2.111590624e0,3.865454486e0
6.371333792e0,1.109857082e0,-3.151474237e0,-2.799071550e0,4.358712443e0
6.381366792e0,1.524110436e0,-2.718010902e0,-3.486162901e0,4.675877208e0
6.391399792e0,1.960600376e0,-2.018805742e0,-4.008516788e0,4.897727769e0
6.401432792e0,2.459138155e0,-1.672271132e0,-4.284957409e0,5.215813570e0
6.411465792e0,2.950176239e0,-2.169095993e0,-4.213289738e0,5.582143646e0
6.421498792e0,2.777264118e0,-3.989400864e0,-3.912759781e0,6.240048424e0
6.431531792e0,1.856497884e0,-6.065580845e0,-3.446354389e0,7.219086781e0
6.441564792e0,7.096985579e-1,-7.505081654e0,-2.836529255e0,8.054552805e0
6.451597792e0,1.822394086e-3,-8.094150543e0,-2.268523932e0,8.406038137e0
6.461630792e0,-2.044853121e-1,-8.371838570e0,-2.006507874e0,8.611362791e0
6.471663792e0,-2.483486384e-1,-8.378197670e0,-1.842253447e0,8.581944477e0
6.481696792e0,-3.458216488e-1,-8.385720253e0,-1.700259924e0,8.563339336e0
6.491729792e0,-4.842170775e-1,-8.349439621e0,-1.229810119e0,8.453404113e0
6.501762792e0,-4.819441140e-1,-8.082021713e0,-5.301803350e-1,8.113719017e0
6.511795792e0,-3.335197568e-1,-7.786299229e0,-1.424334347e-1,7.794740431e0
6.521828792e0,6.108431146e-2,-7.774404526e0,7.320365310e-2,7.774989119e0
6.531861792e0,6.570310593e-1,-7.608590603e0,3.718353510e-1,7.645953329e0
6.541894792e0,1.102624536e0,-7.449529171e0,4.373126328e-1,7.543375112e0
6.551927792e0,1.294293284e0,-7.243455887e0,4.716261327e-1,7.373281461e0
6.561960792e0,1.464267850e0,-6.916896343e0,6.723343730e-1,7.102082009e0
6.571993792e0,1.406505704e0,-6.613972664e0,8.416837454e-1,6.814053435e0
6.582026792e0,9.942167401e-1,-6.059164047e0,1.208846450e0,6.258054459e0
6.592059792e0,5.788440108e-1,-5.588196278e0,1.782129765e0,5.893978667e0
6.602092792e0,4.423273504e-1,-5.445524216e0,2.367973566e0,5.954551728e0
6.612125792e0,5.337736011e-1,-5.487275124e0,2.795249224e0,6.181304131e0
6.622158792e0,6.649065018e-1,-5.471022129e0,2.959105015e0,6.255436538e0
6.632191792e0,7.164554596e-1,-5.521543503e0,2.936648369e0,6.294811730e0
6.642224792e0,6.673983335e-1,-5.708551884e0,2.799564123e0,6.393007463e0
6.652257792e0,5.871192217e-1,-5.991711617e0,2.593189955e0,6.555146926e0
6.662290792e0,5.209480524e-1,-6.402471542e0,2.363027334e0,6.844481493e0
6.672323792e0,4.745856225e-1,-6.707634926e0,2.131748676e0,7.054215068e0
6.682356792e0,4.759401083e-1,-6.794453144e0,2.031987429e0,7.107748267e0
6.692389792e0,6.059990525e-1,-6.890649796e0,2.150502682e0,7.243821591e0
6.702422792e0,8.952059150e-1,-7.023163795e0,2.359562397e0,7.462825071e0
6.712455792e0,1.277642608e0,-7.169870377e0,2.510590792e0,7.703406907e0
6.722488792e0,1.733172059e0,-7.265823841e0,2.481080532e0,7.870949249e0
6.732521792e0,2.129678488e0,-7.183789730e0,2.233421326e0,7.818601932e0
6.742554792e0,2.480819941e0,-6.849870205e0,1.951305032e0,7.542067404e0
6.752587792e0,2.807875872e0,-6.365937233e0,1.760924459e0,7.177059197e0
6.762620792e0,3.000859261e0,-5.744825363e0,1.689579129e0,6.697973752e0
6.772653792e0,3.112742186e0,-5.139904499e0,1.659096837e0,6.233809789e0
6.782686792e0,3.206680536e0,-4.653417110e0,1.593467116e0,5.871646133e0
6.792719792e0,3.204250097e0,-4.033488274e0,1.497673154e0,5.364631508e0
6.802752792e0,3.127839088e0,-3.277353287e0,1.473839521e0,4.764097487e0
6.812785792e0,3.087190151e0,-2.851607800e0,1.538169742e0,4.475307389e0
6.822818792e0,2.985188007e0,-2.588913441e0,1.601647854e0,4.263695122e0
6.832851792e0,2.803835154e0,-2.318552732e0,1.658571601e0,3.998504483e0
6.842884792e0,2.601556540e0,-2.153582573e0,1.732631326e0,3.795790516e0
6.852917792e0,2.398416996e0,-2.156576872e0,1.766104817e0,3.677275366e0
6.862950792e0,2.186131954e0,-2.213850260e0,1.713896871e0,3.552147009e0
6.872983792e0,1.951734185e0,-2.247522831e0,1.595375776e0,3.377254665e0
6.883016792e0,1.714292407e0,-2.056236982e0,1.419580579e0,3.030200984e0
6.893049792e0,1.598399282e0,-1.639238477e0,1.240994811e0,2.604237157e0
6.903082792e0,1.617668867e0,-1.218191504e0,1.121400833e0,2.314818121e0
6.913115792e0,1.683390617e0,-7.824008465e-1,1.065072060e0,2.140171383e0
6.923148792e0,1.739485741e0,-4.073466659e-1,1.050747275e0,2.072634021e0
6.933181792e0,1.778227806e0,-2.301162183e-1,1.057062387e0,2.081448653e0
6.943214792e0,1.736490250e0,-2.157764286e-1,1.045951962e0,2.038620456e0
6.953247792e0,1.629443407e0,-3.839393556e-1,1.012577415e0,1.956478537e0
6.963280792e0,1.470837712e0,-6.333469152e-1,9.548915029e-1,1.864486437e0
6.973313792e0,1.286388159e0,-7.305171490e-1,8.599894643e-1,1.711149227e0
6.983346792e0,1.166641116e0,-7.307982445e-1,7.619639039e-1,1.573437815e0
6.993379792e0,1.128305435e0,-6.304170489e-1,6.298711300e-1,1.437788737e0
7.003412792e0,1.149706006e0,-3.616906703e-1,4.842749536e-1,1.298909647e0
7.013445792e0,1.248265624e0,-1.553628296e-1,3.775088191e-1,1.313323108e0
7.023478792e0,1.424472094e0,-8.900085092e-2,4.078217745e-1,1.484372088e0
7.033511792e0,1.768426776e0,9.529415518e-2,7.303346395e-1,1.915672969e0
7.043544792e0,1.778749466e0,3.683311939e-1,7.979295254e-1,1.984013372e0
7.053577792e0,1.806599140e0,2.560642958e-1,8.883891106e-1,2.029434549e0
7.063610792e0,1.726659298e0,3.134740517e-2,8.655421734e-1,1.931708634e0
7.073643792e0,1.559910774e0,-1.411585957e-1,8.273627758e-1,1.771377017e0
7.083676792e0,1.330610871e0,-2.384731174e-1,8.458032608e-1,1.594609004e0
7.093709792e0,1.084122062e0,-2.850299478e-1,8.709893227e-1,1.419572160e0
7.103742792e0,9.128140211e-1,-2.921424806e-1,7.978779078e-1,1.247070897e0
7.113775792e0,8.782176971e-1,-1.837493926e-1,6.199707389e-1,1.090593361e0
7.123808792e0,8.990005255e-1,1.049393602e-2,4.286241233e-1,9.960073828e-1
7.133841792e0,1.029619813e0,2.178221047e-1,2.817853987e-1,1.089479894e0
7.143874792e0,1.207622170e0,4.179261327e-1,2.114845067e-1,1.295275745e0
7.153907792e0,1.360995173e0,4.487077594e-1,1.834227890e-1,1.444745803e0
7.163940792e0,1.428097129e0,2.939602435e-1,1.277950257e-1,1.463627549e0
7.173973792e0,1.397297859e0,1.239533722e-1,7.573395967e-2,1.404827882e0
7.184006792e0,1.308773637e0,1.954161189e-2,1.370103844e-2,1.308991224e0
7.194039792e0,1.231696486e0,1.472661737e-2,-5.013066903e-2,1.232804199e0
7.204072792e0,1.187241673e0,9.982997924e-2,-1.293107718e-1,1.198428175e0
7.214105917e0,1.178576231e0,2.520442903e-1,-1.816632003e-1,1.218839520e0
7.224138917e0,1.203042746e0,4.043062627e-1,-2.219084203e-1,1.288417149e0
7.234171917e0,1.239145160e0,4.979994893e-1,-2.657419145e-1,1.361654502e0
7.244204917e0,1.284550071e0,5.802067518e-1,-3.210679889e-1,1.445611778e0
7.254237917e0,1.326647878e0,5.779139996e-1,-3.322231770e-1,1.484705837e0
7.264270917e0,1.329106212e0,5.352230668e-1,-3.038392663e-1,1.464686094e0
7.274303917e0,1.287699223e0,4.748079479e-1,-2.606752813e-1,1.396983707e0
7.284336917e0,1.216612220e0,2.852400839e-1,-2.384912223e-1,1.272157719e0
7.294369917e0,1.095194697e0,9.342644364e-2,-2.304309011e-1,1.123066483e0
7.304402917e0,9.985026717e-1,-9.465353563e-3,-2.313252836e-1,1.024991983e0
7.314435917e0,9.631862044e-1,-5.180295557e-2,-2.362561375e-1,9.930902140e-1
7.324468917e0,9.530991316e-1,-1.927557774e-2,-2.467490286e-1,9.847104070e-1
7.334501917e0,9.246435165e-1,1.022143736e-1,-2.518167496e-1,9.637557192e-1
7.344534917e0,9.318815470e-1,2.092940658e-1,-2.415002286e-1,9.851545990e-1
7.354567917e0,9.478138685e-1,2.897058129e-1,-2.064975053e-1,1.012384219e0
7.364600917e0,9.253627658e-1,3.165855706e-1,-1.734943092e-1,9.932889545e-1
7.374633917e0,8.844581842e-1,3.113516867e-1,-1.452469528e-1,9.488428899e-1
7.384666917e0,8.525472283e-1,2.799332142e-1,-1.425021887e-1,9.085737475e-1
7.394699917e0,7.984637022e-1,2.232206762e-1,-1.573279947e-1,8.438743105e-1
7.404732917e0,6.987770796e-1,2.098136097e-1,-1.733473837e-1,7.499069764e-1
7.414765917e0,6.162680984e-1,2.306568325e-1,-1.866994053e-1,6.839924059e-1
7.424798917e0,5.610538721e-1,2.332425117e-1,-1.970506608e-1,6.387585456e-1
7.434831917e0,5.355508924e-1,2.358572036e-1,-1.802684814e-1,6.123235290e-1
7.444864917e0,5.483409166e-1,1.674350649e-1,-1.567357630e-1,5.943722413e-1
7.454897917e0,5.565536022e-1,9.837450832e-2,-1.541120261e-1,5.858156473e-1
7.464930917e0,5.483777523e-1,7.573021948e-2,-1.397132725e-1,5.709404731e-1
7.474963917e0,5.357455611e-1,6.967605650e-2,-1.158870310e-1,5.525467067e-1
7.484996917e0,5.459365845e-1,9.064646065e-2,-9.346152097e-2,5.612473528e-1
7.495029917e0,5.617781281e-1,7.788352668e-2,-8.964574337e-2,5.741923618e-1
7.505062917e0,5.426385403e-1,2.989841253e-2,-1.017880887e-1,5.529116706e-1
7.515095917e0,4.833306968e-1,-1.383841597e-2,-1.158461124e-1,4.972126165e-1
7.525128917e0,4.391566217e-1,-5.248486623e-2,-1.715478003e-1,4.743857580e-1
7.535161917e0,4.202702940e-1,-5.575043336e-2,-2.203094810e-1,4.777776661e-1
7.545194917e0,3.978955746e-1,-9.381265938e-2,-2.575992942e-1,4.831967505e-1
7.555227917e0,3.465703130e-1,-1.651102751e-1,-3.166335821e-1,4.976235627e-1
7.565260917e0,2.478337139e-1,-2.194803804e-1,-4.015071392e-1,5.203855974e-1
7.575293917e0,1.563900858e-1,-2.480734140e-1,-5.006015301e-1,5.801725343e-1
7.585326917e0,1.144283041e-1,-2.216131836e-1,-5.805509090e-1,6.318588434e-1
7.595359917e0,8.775249124e-2,-1.302355975e-1,-5.946406126e-1,6.150278601e-1
7.605392917e0,8.936633915e-2,-7.629212737e-2,-5.558009744e-1,5.680858688e-1
7.615425917e0,1.011111438e-1,-3.419021890e-2,-5.212693810e-1,5.320847696e-1
7.625458917e0,9.238550812e-2,2.037616819e-2,-4.707448184e-1,4.801572185e-1
7.635491917e0,9.550113976e-2,3.701772913e-2,-3.895104229e-1,4.027519703e-1
7.645524917e0,1.179946810e-1,4.537036270e-2,-3.012947738e-1,3.267411136e-1
7.655557917e0,1.321853399e-1,3.573264927e-2,-2.364350855e-1,2.732239667e-1
7.665590917e0,1.279684007e-1,3.190627694e-2,-1.906926781e-1,2.318568946e-1
7.675623917e0,9.231693298e-2,5.020336714e-3,-1.695535630e-1,1.931218026e-1
7.685656917e0,3.125594929e-2,-7.779084891e-2,-1.669480652e-1,1.868154357e-1
7.695689917e0,-1.393203530e-2,-2.058563977e-1,-1.872261763e-1,2.786119150e-1
7.705722917e0,-4.499855638e-2,-3.191799223e-1,-2.431059629e-1,4.037340735e-1
7.715755917e0,-5.232571065e-2,-3.691717386e-1,-3.031551838e-1,4.805505364e-1
7.725788917e0,-2.660910785e-2,-4.051342309e-1,-3.592795134e-1,5.421471741e-1
7.735821917e0,1.933521405e-2,-4.712711573e-1,-4.254092574e-1,6.351719377e-1
7.745854917e0,1.327921264e-2,-5.188510418e-1,-4.984053373e-1,7.195766959e-1
7.755887917e0,-7.947708666e-2,-5.630522966e-1,-5.484714508e-1,7.900414093e-1
7.765920917e0,-1.699405015e-1,-6.537449956e-1,-5.517700315e-1,8.721883173e-1
7.775953917e0,-1.412593275e-1,-7.381451130e-1,-5.230869651e-1,9.156595320e-1
7.785986917e0,-8.100012690e-2,-7.057904005e-1,-5.081486106e-1,8.734506972e-1
7.796019917e0,-5.374873057e-3,-5.644752979e-1,-4.584828317e-1,7.272329463e-1
7.806052917e0,6.825135648e-2,-4.122282565e-1,-4.164879024e-1,5.899597918e-1
7.816085917e0,7.662247121e-2,-3.383758664e-1,-3.968958259e-1,5.271579713e-1
7.826118917e0,2.918816358e-2,-3.678474426e-1,-3.836722374e-1,5.323232812e-1