"Time (s)","Gyroscope x (rad/s)","Gyroscope y (rad/s)","Gyroscope z (rad/s)","Absolute (rad/s)"
5.922458338e-3,3.302197158e-1,9.312820435e-2,1.418158263e-1,3.712541606e-1
1.595445834e-2,2.228099108e-1,1.481951773e-1,2.015438676e-1,3.350014888e-1
2.598745834e-2,5.012943596e-2,1.742119044e-1,2.244934887e-1,2.885482186e-1
3.601945833e-2,-7.141723484e-2,2.156842500e-1,2.182467878e-1,3.150425011e-1
4.605145834e-2,-1.375493705e-1,2.749344707e-1,1.321879178e-1,3.346377715e-1
5.608445834e-2,-1.615138203e-1,3.328539431e-1,2.079986967e-2,3.705551189e-1
6.611645834e-2,-1.620721519e-1,3.884081542e-1,-9.654694796e-2,4.317980892e-1
7.614945833e-2,-1.571250707e-1,4.386497438e-1,-2.159825265e-1,5.135662930e-1
8.618145833e-2,-1.430363357e-1,4.685339928e-1,-3.354222775e-1,5.937100302e-1
9.621445834e-2,-1.186404526e-1,4.714863896e-1,-4.446302652e-1,6.588406828e-1
1.062464583e-1,-8.186304569e-2,4.690575302e-1,-5.466731191e-1,7.249607051e-1
1.162794583e-1,-3.929135203e-2,4.667589366e-1,-6.251453161e-1,7.811621993e-1
1.263114583e-1,1.098203007e-3,4.566768110e-1,-6.694985628e-1,8.104216442e-1
1.363434583e-1,3.911482543e-2,4.627075195e-1,-6.895872951e-1,8.313596428e-1
1.463764583e-1,5.170011148e-2,5.288423896e-1,-7.022283673e-1,8.806087976e-1
1.564084583e-1,3.953132778e-2,6.200604439e-1,-6.913746595e-1,9.295356904e-1
1.664414583e-1,-2.163742855e-2,7.028203607e-1,-6.660078764e-1,9.684994213e-1
1.764734583e-1,-1.380604506e-1,7.450410128e-1,-6.252226233e-1,9.823696491e-1
1.865054583e-1,-2.733519673e-1,7.381110191e-1,-5.787263513e-1,9.769612911e-1
1.965384583e-1,-5.820608139e-1,5.070453286e-1,2.830989361e-1,8.222133324e-1
2.065704583e-1,-1.266253948e0,4.745608568e-1,2.064535618e0,2.467977793e0
2.166034583e-1,-1.119551420e0,7.351679206e-1,2.049267530e0,2.448134936e0
2.266354583e-1,-6.553907990e-1,1.037327886e0,1.925950408e0,2.283609252e0
2.366684583e-1,-2.849594057e-1,1.259045959e0,1.736976743e0,2.164136501e0
2.467004583e-1,-1.360426545e-1,1.325482726e0,1.502410412e0,2.008145689e0
2.567324583e-1,-8.642662317e-2,1.287058353e0,1.415340662e0,1.914987717e0
2.667654583e-1,-5.318922922e-3,1.104924798e0,1.209766150e0,1.638420348e0
2.767974583e-1,9.426758438e-2,9.996553063e-1,8.949050307e-1,1.345010083e0
2.868304583e-1,2.684467137e-1,9.870004058e-1,4.822137356e-1,1.130824268e0
2.968624583e-1,6.538031697e-1,7.310360074e-1,-7.999443412e-1,1.265615731e0
3.068954583e-1,9.106042385e-1,6.022998691e-1,-1.574645877e0,1.916109300e0
3.169274583e-1,1.075465918e0,4.392606318e-1,-1.399086595e0,1.818521416e0
3.269594583e-1,1.417068481e0,4.270417988e-2,-9.550549984e-1,1.709396612e0
3.369925000e-1,1.932218671e0,-4.772356749e-1,-4.764905274e-1,2.046525373e0
3.470245000e-1,2.433404922e0,-8.984962106e-1,-3.266216815e-2,2.594190004e0
3.570575000e-1,2.870653391e0,-9.614331126e-1,4.651566744e-1,3.062903076e0
3.670895000e-1,3.225635767e0,-6.480216384e-1,7.348781824e-1,3.371157678e0
3.771225000e-1,3.517710686e0,-1.516805291e-1,8.351837397e-1,3.618677567e0
3.871545000e-1,3.673551798e0,1.035858467e-1,9.860342145e-1,3.804993602e0
3.971865000e-1,3.742279053e0,1.863710135e-1,9.287053943e-1,3.860295374e0
4.072195000e-1,3.728010654e0,1.933129579e-1,7.642919421e-1,3.810456077e0
4.172515000e-1,3.653227806e0,1.936386675e-1,4.931592047e-1,3.691446239e0
4.272845000e-1,3.528227806e0,1.821583360e-1,1.824128777e-1,3.537633046e0
4.373165000e-1,3.353661537e0,1.278239936e-1,-6.832426041e-2,3.356792053e0
4.473495000e-1,3.144169569e0,1.059704795e-1,-2.156928629e-1,3.153340361e0
4.573815000e-1,2.906556606e0,1.896845549e-1,-2.898714840e-1,2.927127775e0
4.674135000e-1,2.643037319e0,3.383350372e-1,-3.095721006e-1,2.682527121e0
4.774465000e-1,2.355394840e0,5.391306877e-1,-3.124427199e-1,2.436425087e0
4.874785000e-1,2.050577641e0,7.322161794e-1,-3.393091261e-1,2.203665101e0
4.975115000e-1,1.724837422e0,8.380142450e-1,-3.527868688e-1,1.949818090e0
5.075435000e-1,1.382032871e0,8.275803328e-1,-3.727197945e-1,1.653427987e0
5.175765000e-1,1.019234657e0,6.685975790e-1,-4.028510451e-1,1.283803324e0
5.276085000e-1,6.411896944e-1,4.112912714e-1,-4.194010794e-1,8.695872582e-1
5.376405000e-1,2.441089153e-1,1.134417504e-1,-3.965327740e-1,4.792665585e-1
5.476735000e-1,-1.568123549e-1,-2.077857703e-1,-3.618927002e-1,4.457929648e-1
5.577055000e-1,-5.675383806e-1,-5.020964742e-1,-3.043367267e-1,8.165914070e-1
5.677385000e-1,-9.793326259e-1,-7.437248826e-1,-2.069097459e-1,1.247008715e0
5.777705000e-1,-1.394604087e0,-9.062307477e-1,-6.923949718e-2,1.664622731e0
5.878035000e-1,-1.801672101e0,-9.962034822e-1,1.057235003e-1,2.061460937e0
5.978355000e-1,-2.211453676e0,-9.952778220e-1,2.951378822e-1,2.442992361e0
6.078675000e-1,-2.623342991e0,-9.982116818e-1,4.737546146e-1,2.846541488e0
6.179005000e-1,-3.045029163e0,-9.529483318e-1,5.921587348e-1,3.245144850e0
6.279325000e-1,-3.483468056e0,-9.120517373e-1,5.959866047e-1,3.649875080e0
6.379655000e-1,-3.930278063e0,-9.286890030e-1,5.335208178e-1,4.073597106e0
6.479975000e-1,-4.396970749e0,-9.791471362e-1,5.042527318e-1,4.532808368e0
6.580305000e-1,-4.902804375e0,5.205385089e-1,3.355558217e-1,4.941765756e0
6.680625000e-1,-5.534063816e0,7.456578612e-1,4.912117496e-2,5.584288751e0
6.780945000e-1,-6.388396263e0,6.734675169e-1,-7.008640766e-1,6.461917344e0
6.881275000e-1,-6.981085777e0,3.977718651e-1,-4.286467731e-1,7.005534893e0
6.981595000e-1,-7.346602917e0,2.053661942e-1,-4.950024188e-2,7.349639444e0
7.081925000e-1,-7.698266983e0,-1.925172955e-1,4.252725840e-1,7.712407810e0
7.182245000e-1,-8.041813850e0,-4.878381491e-1,4.505113661e-1,8.069183141e0
7.282575000e-1,-8.440889359e0,-6.520996094e-1,4.356651008e-1,8.477243133e0
7.382895000e-1,-8.864414215e0,-7.986464500e-1,3.950510919e-1,8.909081933e0
7.483215000e-1,-9.293812752e0,-8.881924748e-1,3.723662198e-1,9.343580574e0
7.583545000e-1,-9.719595909e0,-9.514889121e-1,3.635229170e-1,9.772820713e0
7.683865000e-1,-1.014200497e1,-9.613621235e-1,4.162639678e-1,1.019596771e1
7.784195000e-1,-1.058032036e1,-1.026695013e0,4.365849495e-1,1.063897965e1
7.884515000e-1,-1.104898262e1,-1.065924764e0,3.680189550e-1,1.110637882e1
7.984845000e-1,-1.150486469e1,-9.866026044e-1,3.230235279e-1,1.155160770e1
8.085165000e-1,-1.193867779e1,-9.330822825e-1,1.839736104e-1,1.197649849e1
8.185485000e-1,-1.238119411e1,-9.226704240e-1,-4.727638513e-2,1.241561611e1
8.285815000e-1,-1.284999847e1,-7.920482159e-1,-1.688757092e-1,1.287549301e1
8.386135000e-1,-1.329375553e1,-6.202673912e-1,-2.537674308e-1,1.331063731e1
8.486465000e-1,-1.370115566e1,-3.791896999e-1,-2.774232328e-1,1.370920913e1
8.586785000e-1,-1.403770733e1,-2.184956372e-1,-8.642187715e-2,1.403967365e1
8.687115000e-1,-1.436523914e1,-1.704790294e-1,2.985760011e-2,1.436628171e1
8.787435000e-1,-1.468711281e1,-2.180614620e-1,2.316122949e-1,1.469055743e1
8.887755000e-1,-1.506880665e1,-8.089175075e-2,3.535718918e-1,1.507317121e1
8.988085000e-1,-1.554393768e1,2.981106564e-2,3.579700887e-1,1.554808766e1
9.088405000e-1,-1.608667946e1,1.306968629e-1,3.899385333e-1,1.609193555e1
9.188735000e-1,-1.675721550e1,1.998176128e-1,4.479083419e-1,1.676439144e1
9.289055000e-1,-1.746722984e1,1.696216315e-2,5.881941319e-1,1.747713874e1
9.389385000e-1,-1.818506813e1,-1.215504408e-1,5.410369635e-1,1.819352078e1
9.489705000e-1,-1.885942078e1,-6.963082403e-2,4.152131677e-1,1.886411945e1
9.590025000e-1,-1.937043762e1,-1.831539674e-3,1.916850060e-1,1.937138612e1
9.690355000e-1,-1.993914032e1,8.800434321e-2,4.735164344e-1,1.994495624e1
9.790675000e-1,-2.050832748e1,-8.005629480e-2,5.939866304e-1,2.051708374e1
9.891005000e-1,-2.097281837e1,-3.420745730e-1,7.221114635e-1,2.098803398e1
9.991325000e-1,-2.127209854e1,-6.242540479e-1,6.772286296e-1,2.129202921e1
1.009165500e0,-2.136505127e1,-8.872323036e-1,5.965564847e-1,2.139178526e1
1.019197500e0,-2.122309875e1,-8.430827260e-1,4.994901717e-1,2.124571015e1
1.029229500e0,-2.086812019e1,-6.416729093e-1,2.185434699e-1,2.087912704e1
1.039262500e0,-2.037127876e1,-4.690776765e-1,-2.128044665e-1,2.037778982e1
1.049294500e0,-1.980254364e1,-3.450917006e-1,-4.389405847e-1,1.981041372e1
1.059327500e0,-1.921564102e1,-2.675899863e-1,-5.017787218e-1,1.922405384e1
1.069359500e0,-1.862376022e1,-1.703888625e-1,-4.353464544e-1,1.862962704e1
1.079391500e0,-1.805272675e1,-1.210431606e-1,-2.877133191e-1,1.805542504e1
1.089424500e0,-1.752073479e1,-1.374679655e-1,-2.974805534e-1,1.752379923e1
1.099456500e0,-1.693273354e1,-3.378263712e-1,-3.093497157e-1,1.693892821e1
1.109489500e0,-1.622676086e1,-3.861969411e-1,-4.666400552e-1,1.623806236e1
1.119521500e0,-1.539836216e1,-2.662928998e-1,-6.540424824e-1,1.541454640e1
1.129554500e0,-1.453327656e1,-1.443710327e-1,-7.966250181e-1,1.455580922e1
1.139586500e0,-1.371405792e1,-7.879655063e-2,-9.188912511e-1,1.374503382e1
1.149618500e0,-1.300262165e1,1.541912407e-1,-9.518700838e-1,1.303832817e1
1.159651500e0,-1.238941193e1,3.947734833e-1,-1.040819407e0,1.243931988e1
1.169683500e0,-1.187209129e1,4.314841330e-1,-1.031789780e0,1.192465179e1
1.179716500e0,-1.145921230e1,3.550410271e-1,-9.704287052e-1,1.150570870e1
1.189748500e0,-1.111952877e1,2.234260142e-1,-7.683605552e-1,1.114828315e1
1.199781500e0,-1.084726143e1,1.797967702e-1,-4.634256959e-1,1.085864498e1
1.209813500e0,-1.058832073e1,2.043370306e-1,-1.803661883e-1,1.059182805e1
1.219845500e0,-1.032566261e1,1.514269561e-1,3.864978999e-2,1.032684523e1
1.229878500e0,-1.003163338e1,8.437673748e-2,1.570302844e-1,1.003321714e1
1.239910500e0,-9.676501274e0,-2.498650737e-2,2.082982659e-1,9.678775201e0
1.249943500e0,-9.276019096e0,-1.398441643e-1,2.461582273e-1,9.280338385e0
1.259975500e0,-8.828770638e0,-2.877736986e-1,3.087315857e-1,8.838852859e0
1.270008500e0,-8.368013382e0,-4.579146206e-1,4.011265039e-1,8.390127307e0
1.280040500e0,-7.924423695e0,-6.222351193e-1,4.897083044e-1,7.963886090e0
1.290072500e0,-7.484541893e0,-9.042658210e-1,6.273744702e-1,7.565028932e0
1.300105500e0,-7.233867168e0,-1.152413130e0,6.749294400e-1,7.356114462e0
1.310137500e0,-7.144667625e0,-1.469324589e0,8.271483183e-1,7.340937581e0
1.320170500e0,-7.119514942e0,-1.822687984e0,1.154044986e0,7.439187074e0
1.330202458e0,-7.251393795e0,-1.937132478e0,1.548947692e0,7.663839322e0
1.340235458e0,-7.528283596e0,-1.728286862e0,1.984947085e0,7.975088985e0
1.350267458e0,-7.931195259e0,-1.415749192e0,2.330536604e0,8.386870982e0
1.360299458e0,-8.367785454e0,-9.737433195e-1,1.958038449e0,8.648810555e0
1.370332458e0,-8.768291473e0,-6.579306126e-1,1.130470157e0,8.865312788e0
1.380364458e0,-9.151449203e0,-3.419910669e-1,4.557891488e-1,9.169172491e0
1.390397458e0,-9.531276703e0,-8.350078017e-2,4.966892675e-2,9.531771869e0
1.400429458e0,-9.903362274e0,-6.592418998e-3,-1.096677333e-1,9.903971668e0
1.410462458e0,-1.025319767e1,-1.523604840e-1,-1.665774435e-1,1.025568253e1
1.420494458e0,-1.053812885e1,-3.877229095e-1,-1.707897782e-1,1.054664202e1
1.430526458e0,-1.077850914e1,-5.780275464e-1,-2.777717412e-1,1.079757067e1
1.440559458e0,-1.101256084e1,-6.116060615e-1,-4.351203442e-1,1.103811071e1
1.450591458e0,-1.124440384e1,-4.332048893e-1,-5.522432327e-1,1.126628851e1
1.460624458e0,-1.140583992e1,-2.295425683e-1,-4.764717817e-1,1.141809526e1
1.470656458e0,-1.143189049e1,-8.388651162e-2,-2.987759113e-1,1.143610179e1
1.480689458e0,-1.133558655e1,-6.564551964e-3,-1.736443639e-1,1.133691836e1
1.490721458e0,-1.117971039e1,1.023923010e-1,-1.459186673e-1,1.118113146e1
1.500753458e0,-1.098364544e1,1.888994873e-1,-2.068973333e-1,1.098721788e1
1.510786458e0,-1.072597599e1,1.604834795e-1,-2.750193775e-1,1.073070135e1
1.520818458e0,-1.039080715e1,8.898161352e-2,-2.794674039e-1,1.039494555e1
1.530851458e0,-9.977443695e0,5.628845096e-2,-1.268395483e-1,9.978408658e0
1.540883458e0,-9.444314003e0,-5.943867937e-2,-4.147804901e-2,9.444592123e0
1.550916458e0,-8.882819176e0,-9.907653183e-2,-2.028642967e-2,8.883394858e0
1.560948458e0,-8.294446945e0,-7.486813515e-2,2.976182476e-2,8.294838222e0
1.570980458e0,-7.680419922e0,-4.357430711e-2,1.284982413e-1,7.681618364e0
1.581013458e0,-7.036904335e0,-2.720012702e-2,1.734862179e-1,7.039095108e0
1.591045458e0,-6.389006615e0,-3.071111999e-2,1.841631979e-1,6.391734098e0
1.601078458e0,-5.742246628e0,-7.690577954e-2,1.183974966e-1,5.743981964e0
1.611110458e0,-5.142347813e0,-9.117983282e-2,6.042223796e-2,5.143511022e0
1.621142458e0,-4.552979469e0,-1.459107250e-1,8.704852313e-2,4.556148531e0
1.631175458e0,-3.996312857e0,-8.979274333e-2,1.632757187e-1,4.000654715e0
1.641207458e0,-3.476285934e0,-1.102319732e-1,3.115003407e-1,3.491954674e0
1.651240458e0,-3.004662514e0,-1.038998812e-1,5.986273885e-1,3.065476595e0
1.661272458e0,-2.580085278e0,-8.220950514e-2,7.991375923e-1,2.702261892e0
1.671305458e0,-2.215628862e0,-6.576512754e-2,7.893269658e-1,2.352949929e0
1.681337458e0,-1.816139102e0,2.216288298e-1,5.808994770e-1,1.919615789e0
1.691369458e0,-1.511264801e0,1.311130971e-1,7.701049447e-1,1.701227077e0
1.701402458e0,-1.368520141e0,-5.050436035e-2,8.709740639e-1,1.622958375e0
1.711434458e0,-1.162908792e0,-2.090271413e-1,8.805958033e-1,1.473600412e0
1.721467458e0,-8.359461427e-1,-2.428162694e-1,8.140689731e-1,1.191836393e0
1.731499458e0,-4.544961452e-1,-2.299797535e-1,5.669257045e-1,7.621431542e-1
1.741532458e0,-2.133166976e-2,-1.541552991e-1,3.505734801e-1,3.835631126e-1
1.751564458e0,4.596356452e-1,-6.571553648e-2,2.256252170e-1,5.162268848e-1
1.761596458e0,9.357473254e-1,1.089189574e-2,1.421175301e-1,9.465405870e-1
1.771629458e0,1.361001611e0,7.773215324e-2,1.144506261e-1,1.368015577e0
1.781661458e0,1.722602606e0,1.697544754e-1,6.386041641e-2,1.732124266e0
1.791694458e0,2.028179646e0,2.503823042e-1,-9.760467708e-2,2.045905825e0
1.801726458e0,2.292296171e0,3.177402914e-1,-3.083866835e-1,2.334669779e0
1.811759458e0,2.498364210e0,3.331948519e-1,-4.763696492e-1,2.565106348e0
1.821791458e0,2.644761324e0,3.287540376e-1,-5.384588838e-1,2.718966651e0
1.831823458e0,2.724462032e0,3.074435294e-1,-4.964370728e-1,2.786335345e0
1.841856458e0,2.734346151e0,2.522020936e-1,-4.010911286e-1,2.775090785e0
1.851888458e0,2.674567699e0,2.011741102e-1,-3.119762838e-1,2.700206030e0
1.861921458e0,2.553503275e0,1.408340782e-1,-2.744033337e-1,2.572063452e0
1.871953458e0,2.383044720e0,9.139399976e-2,-2.740055025e-1,2.400486204e0
1.881986458e0,2.163623571e0,1.843430847e-2,-2.602420151e-1,2.179296375e0
1.892018458e0,1.913720369e0,-4.353637248e-2,-1.946448237e-1,1.924086192e0
1.902050458e0,1.640442967e0,-4.938174784e-2,-8.075901866e-2,1.643171843e0
1.912083458e0,1.340967298e0,-5.721250549e-2,-1.244069822e-2,1.342244886e0
1.922115458e0,1.009372592e0,-8.380709589e-2,4.337942228e-2,1.013774350e0
1.932148458e0,6.325579882e-1,-1.337951571e-1,-1.908739470e-2,6.468346629e-1
1.942180458e0,2.444416881e-1,-2.359982282e-1,-3.171690181e-2,3.412519076e-1
1.952212458e0,-1.458115876e-1,-3.138597012e-1,-3.360897303e-2,3.477046076e-1
1.962245458e0,-5.475081801e-1,-3.921968639e-1,-1.372739673e-3,6.734875439e-1
1.972277458e0,-9.401880503e-1,-3.988157511e-1,9.879840910e-2,1.026045174e0
1.982310458e0,-1.331084967e0,-3.228767812e-1,1.672379076e-1,1.379856921e0
1.992342458e0,-1.699742794e0,-1.899393946e-1,1.864969432e-1,1.720460302e0
2.002375458e0,-2.044229031e0,-1.119593680e-1,1.668369472e-1,2.054079306e0
2.012407458e0,-2.374367714e0,-9.452453256e-2,1.220865399e-1,2.379382704e0
2.022439458e0,-2.704704285e0,-8.189955354e-2,7.451902330e-2,2.706969872e0
2.032472458e0,-3.029489279e0,-2.624387108e-2,4.549871013e-2,3.029944581e0
2.042504458e0,-3.330385923e0,8.629252762e-2,9.934276342e-2,3.332984516e0
2.052537458e0,-3.585522652e0,1.842118353e-1,1.666840464e-1,3.594118843e0
2.062569458e0,-3.780207396e0,2.196694314e-1,1.572098583e-1,3.789846640e0
2.072602458e0,-3.920774937e0,1.894418001e-1,2.296839356e-1,3.932062946e0
2.082634458e0,-4.051476002e0,1.223301291e-1,1.946220845e-1,4.057992140e0
2.092666458e0,-4.128307819e0,2.650719136e-2,6.672586501e-2,4.128932117e0
2.102699458e0,-4.122160435e0,3.583118320e-2,-6.005445123e-2,4.122753577e0
2.112731458e0,-4.050492764e0,9.257861972e-2,-1.127773151e-1,4.053119928e0
2.122764458e0,-3.933171511e0,1.276045144e-1,-9.227231145e-2,3.936322551e0
2.132796458e0,-3.764332771e0,1.277153194e-1,-5.936278403e-2,3.766966466e0
2.142829458e0,-3.556691647e0,1.137251854e-1,-3.798692673e-2,3.558712112e0
2.152861458e0,-3.326282978e0,9.999811649e-2,-6.568376720e-2,3.328433931e0
2.162893458e0,-3.087863684e0,7.016938180e-2,-1.614520997e-1,3.092877730e0
2.172926458e0,-2.862868547e0,4.129166156e-2,-2.989894748e-1,2.878735144e0
2.182958458e0,-2.638319254e0,3.666122258e-2,-3.931306005e-1,2.667700171e0
2.192991458e0,-2.421792030e0,5.280542001e-2,-4.318725765e-1,2.460564767e0
2.203023458e0,-2.190500975e0,6.830714643e-2,-3.968320489e-1,2.227203642e0
2.213055458e0,-1.936794758e0,8.513733745e-2,-3.205357492e-1,1.964984852e0
2.223088458e0,-1.660570621e0,9.370180219e-2,-2.741802335e-1,1.685659995e0
2.233120458e0,-1.381148338e0,1.001749933e-1,-2.324555963e-1,1.404151475e0
2.243153458e0,-1.098257899e0,8.090489358e-2,-2.326785028e-1,1.125546668e0
2.253185458e0,-8.224917054e-1,3.222241625e-2,-2.939747870e-1,8.740435144e-1
2.263218458e0,-5.223087072e-1,3.517985716e-2,-2.962813675e-1,6.015202879e-1
2.273250458e0,-1.931506395e-1,3.427354246e-2,-2.874046564e-1,3.479702312e-1
2.283282458e0,1.531638950e-1,1.443326101e-2,-2.121032476e-1,2.620215362e-1
2.293315458e0,5.139151812e-1,6.865118444e-2,-6.670115143e-2,5.227531369e-1
2.303347458e0,8.620326519e-1,1.474224329e-1,9.025144577e-2,8.791922373e-1
2.313380458e0,1.199994564e0,2.742275000e-1,2.176656127e-1,1.250026398e0
2.323412458e0,1.504073858e0,4.114476740e-1,2.201516777e-1,1.574799708e0
2.333445625e0,1.731238961e0,4.451704621e-1,1.606653333e-1,1.794764171e0
2.343477625e0,1.921604633e0,3.778673112e-1,8.725901693e-2,1.960347471e0
2.353509625e0,2.087368011e0,3.147875071e-1,2.392475307e-2,2.111106057e0
2.363542625e0,2.241889954e0,2.545257807e-1,6.228731945e-2,2.257151667e0
2.373574625e0,2.423381805e0,1.980885416e-1,1.475038379e-1,2.435934282e0
2.383607625e0,2.600852013e0,1.833655238e-1,2.010940909e-1,2.615051231e0
2.393639625e0,2.781604767e0,1.765573025e-1,2.444124520e-1,2.797898320e0
2.403672625e0,2.993039131e0,2.140391767e-1,2.536922395e-1,3.011387680e0
2.413704625e0,3.145681620e0,2.403507382e-1,1.758589000e-1,3.159748041e0
2.423736625e0,3.233177662e0,2.733139992e-1,7.850518823e-2,3.245658855e0
2.433769625e0,3.275733948e0,2.923526168e-1,2.456932701e-2,3.288845786e0
2.443801625e0,3.274916172e0,3.077305257e-1,6.818098575e-2,3.290049036e0
2.453834625e0,3.199986458e0,3.706800640e-1,3.066096827e-2,3.221530247e0
2.463866625e0,3.113263369e0,4.891385436e-1,1.632384211e-2,3.151496753e0
2.473898625e0,3.055626869e0,5.612649322e-1,7.733778097e-3,3.106756138e0
2.483931625e0,2.976265669e0,5.716659427e-1,-2.341535315e-2,3.030760228e0
2.493963625e0,2.861618996e0,5.238085389e-1,-5.966116861e-2,2.909776300e0
2.503996625e0,2.733211040e0,4.897277951e-1,-1.435052007e-1,2.780444146e0
2.514028625e0,2.561031342e0,4.904076755e-1,-2.535580695e-1,2.619861240e0
2.524061625e0,2.320799828e0,4.816994071e-1,-4.576544762e-1,2.414040964e0
2.534093625e0,2.025550365e0,4.579118192e-1,-5.959315896e-1,2.160479571e0
2.544125625e0,1.701323390e0,4.344198108e-1,-5.686005950e-1,1.845678327e0
2.554158625e0,1.392613530e0,3.986355364e-1,-4.488417208e-1,1.516489903e0
2.564190625e0,1.127942443e0,3.313768804e-1,-3.109485805e-1,1.216040218e0
2.574223625e0,9.164171815e-1,3.097786903e-1,-1.702175885e-1,9.822206040e-1
2.584255625e0,8.119599819e-1,1.650188416e-1,4.484173842e-3,8.285712632e-1
2.594288625e0,8.036598563e-1,-2.268451080e-2,4.727862775e-2,8.053688722e-1
2.604320625e0,8.246362805e-1,-2.205238342e-1,8.059264719e-2,8.574094304e-1
2.614352625e0,7.966973186e-1,-2.418899834e-1,2.851914167e-1,8.800974524e-1
2.624385625e0,6.743772626e-1,-1.793421805e-1,3.675235808e-1,7.886836453e-1
2.634417625e0,4.993957579e-1,-1.881106049e-1,2.650840878e-1,5.958618098e-1
2.644450625e0,3.105715215e-1,-2.129320651e-1,1.988938898e-1,4.258562125e-1
2.654482625e0,7.244484872e-2,-2.004282176e-1,1.357704699e-1,2.526921982e-1
2.664515625e0,-1.158901751e-1,-2.768590748e-1,1.674863249e-1,3.437050320e-1
2.674547625e0,-1.126636863e-1,-3.168202341e-1,2.916754484e-1,4.451322659e-1
2.684579625e0,-7.585134357e-2,-3.599075079e-1,2.458350062e-1,4.424044426e-1
2.694612625e0,-2.720281668e-2,-3.933242857e-1,1.249520555e-1,4.135903809e-1
2.704644625e0,6.683313847e-2,-4.090856910e-1,9.860913455e-2,4.260769090e-1
2.714677625e0,1.272459924e-1,-3.765441775e-1,3.023512661e-2,3.986116194e-1
2.724709625e0,9.887214005e-2,-2.993194163e-1,-4.231790453e-2,3.180544263e-1
2.734742625e0,2.864257433e-2,-2.119665146e-1,-1.453532465e-2,2.143862776e-1
2.744774625e0,-7.542177290e-2,-7.945346832e-2,2.856154740e-2,1.132124527e-1
2.754806625e0,-2.277820110e-1,4.714840651e-2,7.705984265e-2,2.450425190e-1
2.764839625e0,-4.081930816e-1,1.030183360e-1,1.334570646e-1,4.416391712e-1
2.774871625e0,-5.834914446e-1,7.211866230e-2,1.553592086e-1,6.081117094e-1
2.784904625e0,-7.313096523e-1,7.381349802e-2,1.261358112e-1,7.457697251e-1
2.794936625e0,-8.574627638e-1,1.030212641e-1,8.611938357e-2,8.679126225e-1
2.804968625e0,-9.658041596e-1,9.707149863e-2,2.269939706e-2,9.709355351e-1
2.815001625e0,-1.100422740e0,9.926213324e-2,-4.577205703e-2,1.105838261e0
2.825033625e0,-1.262757659e0,1.027029380e-1,-6.160987541e-2,1.268424446e0
2.835066625e0,-1.436216950e0,8.462228626e-2,-4.365243949e-3,1.438714397e0
2.845098625e0,-1.611523509e0,3.196865693e-2,9.898458421e-2,1.614877074e0
2.855131625e0,-1.790440083e0,-6.799807400e-2,2.025708407e-1,1.803145688e0
2.865163625e0,-1.947278619e0,-1.824303716e-1,3.011986315e-1,1.978862167e0
2.875195625e0,-2.086597681e0,-2.924997211e-1,3.660449088e-1,2.138559058e0
2.885228625e0,-2.206558943e0,-3.755123317e-1,3.721664548e-1,2.269012946e0
2.895260625e0,-2.292406082e0,-3.996325731e-1,3.551917374e-1,2.353931394e0
2.905293625e0,-2.377102852e0,-3.907014132e-1,3.464294076e-1,2.433778728e0
2.915325625e0,-2.458281755e0,-3.980606794e-1,3.052567542e-1,2.508940649e0
2.925358625e0,-2.531787872e0,-4.004511237e-1,2.914530635e-1,2.579778250e0
2.935390625e0,-2.566671371e0,-3.827869892e-1,2.842244506e-1,2.610576823e0
2.945422625e0,-2.588057280e0,-3.517600894e-1,3.503835201e-1,2.635250321e0
2.955455625e0,-2.587237358e0,-3.304747641e-1,3.046650290e-1,2.625991526e0
2.965487625e0,-2.534250975e0,-3.105412722e-1,2.511647642e-1,2.565530671e0
2.975520625e0,-2.438363075e0,-2.562889755e-1,2.218907624e-1,2.461815191e0
2.985552625e0,-2.312219143e0,-2.018446326e-1,2.553470135e-1,2.335016214e0
2.995585625e0,-2.150906801e0,-1.756880134e-1,2.512655258e-1,2.172648317e0
3.005617625e0,-1.968935609e0,-1.349107623e-1,2.612470388e-1,1.990768284e0
3.015649625e0,-1.784463525e0,-7.789951563e-2,3.106424809e-1,1.812974671e0
3.025682625e0,-1.593598247e0,6.333708297e-4,3.069729209e-1,1.622894989e0
3.035714625e0,-1.370775700e0,1.212275401e-1,2.333451062e-1,1.395769348e0
3.045747625e0,-1.136397362e0,1.749906391e-1,2.452097535e-1,1.175648124e0
3.055779625e0,-9.136057496e-1,1.677208096e-1,9.794649482e-2,9.340231536e-1
3.065812625e0,-6.576591730e-1,1.802912056e-1,6.171924993e-2,6.847114520e-1
3.075844625e0,-3.827643692e-1,1.782638580e-1,6.709148735e-2,4.275369377e-1
3.085876625e0,-1.284487247e-1,1.535228193e-1,6.464244425e-2,2.103496530e-1
3.095909625e0,1.219908744e-1,8.421573043e-2,7.863277197e-2,1.678009998e-1
3.105941625e0,3.674602807e-1,4.143470898e-2,5.152472481e-2,3.733613400e-1
3.115974625e0,5.978490710e-1,3.108345903e-2,5.396609381e-2,6.010840477e-1
3.126006625e0,8.108561635e-1,4.661181569e-2,2.500342205e-2,8.125795656e-1
3.136038625e0,9.934977889e-1,6.803413481e-2,1.145863719e-2,9.958904560e-1
3.146071625e0,1.139492869e0,7.756505162e-2,-1.508828625e-2,1.142229396e0
3.156103625e0,1.253601670e0,1.633304730e-2,-1.779427007e-2,1.253834340e0
3.166136625e0,1.350405931e0,-1.106842905e-1,4.664970189e-2,1.355737211e0
3.176168625e0,1.458241940e0,-2.160093784e-1,1.842772961e-1,1.485627049e0
3.186201625e0,1.526333928e0,-2.394001931e-1,1.542251110e-1,1.552672888e0
3.196233625e0,1.573657990e0,-1.966629177e-1,3.689832240e-2,1.586328231e0
3.206265625e0,1.614196658e0,-1.199045032e-1,-4.613877460e-2,1.619301308e0
3.216298625e0,1.644456029e0,-1.056743860e-1,-7.784441859e-2,1.649685564e0
3.226330625e0,1.649667621e0,-1.417434365e-1,-8.801209927e-2,1.658083409e0
3.236363625e0,1.598672152e0,-1.790374666e-1,-1.185474098e-1,1.613028379e0
3.246395625e0,1.497420549e0,-2.228430063e-1,-1.436634064e-1,1.520712491e0
3.256428625e0,1.369765759e0,-1.958860457e-1,-2.007636726e-1,1.398190126e0
3.266460625e0,1.264095545e0,-6.600607187e-2,-2.385901362e-1,1.288106984e0
3.276492625e0,1.199770212e0,5.780299008e-2,-2.741003633e-1,1.232039268e0
3.286525625e0,1.147233248e0,1.825055182e-1,-2.893453538e-1,1.197152088e0
3.296557625e0,1.073667884e0,2.761565149e-1,-2.600280046e-1,1.138700886e0
3.306590625e0,9.614449143e-1,3.519572616e-1,-1.829513162e-1,1.040058374e0
3.316622625e0,7.839096785e-1,3.753574491e-1,-8.588462323e-2,8.733749293e-1
3.326655625e0,5.800483823e-1,3.681789041e-1,-4.394825548e-3,6.870452283e-1
3.336687583e0,4.006707668e-1,3.480062783e-1,5.187065527e-2,5.332316551e-1
3.346719583e0,2.506943047e-1,3.269774020e-1,1.842840910e-1,4.513562695e-1
3.356752583e0,1.371752620e-1,3.154353201e-1,2.736596465e-1,4.395521537e-1
3.366784583e0,7.185725123e-2,3.044101000e-1,2.664869428e-1,4.109066368e-1
3.376817583e0,4.545016587e-2,2.629887760e-1,2.055926323e-1,3.368933723e-1
3.386849583e0,9.996567853e-3,1.913055331e-1,1.464659423e-1,2.411431330e-1
3.396881583e0,-8.550887555e-2,1.205977798e-1,1.593635231e-1,2.173759986e-1
3.406914583e0,-2.277293950e-1,4.455068335e-2,1.945393533e-1,3.028052191e-1
3.416946583e0,-3.780534863e-1,-8.691851981e-3,1.961827874e-1,4.260137004e-1
3.426979583e0,-5.162994862e-1,-3.920635208e-2,2.105073929e-1,5.589415532e-1
3.437011583e0,-6.246121526e-1,-6.760374457e-2,2.260649949e-1,6.676945330e-1
3.447044583e0,-6.881876588e-1,-1.422337890e-1,2.300970256e-1,7.394439435e-1
3.457076583e0,-7.409269810e-1,-1.881119758e-1,2.157904804e-1,7.943075210e-1
3.467109583e0,-8.249334693e-1,-2.292575389e-1,2.176645398e-1,8.834320007e-1
3.477141583e0,-9.327146411e-1,-3.066805005e-1,2.614304721e-1,1.016048927e0
3.487173583e0,-1.044188380e0,-3.656604588e-1,3.374906182e-1,1.156692207e0
3.497206583e0,-1.166473985e0,-4.097336233e-1,4.535342157e-1,1.316904129e0
3.507238583e0,-1.300413728e0,-4.138391316e-1,5.124105811e-1,1.457704803e0
3.517271583e0,-1.371477485e0,-4.373990595e-1,5.635025501e-1,1.545898946e0
3.527303583e0,-1.440792918e0,-5.191708803e-1,4.124459028e-1,1.586043587e0
3.537335583e0,-1.481872082e0,-4.780490100e-1,2.668462396e-1,1.579772970e0
3.547368583e0,-1.455537915e0,-3.891918361e-1,2.179298252e-1,1.522351575e0
3.557400583e0,-1.410716057e0,-3.418095708e-1,1.376197487e-1,1.458044159e0
3.567433583e0,-1.376355886e0,-2.360165715e-1,7.270412892e-2,1.398336597e0
3.577465583e0,-1.358611345e0,-1.431010216e-1,-5.313715711e-2,1.367159920e0
3.587498583e0,-1.322224736e0,-5.908254534e-2,-3.504550457e-2,1.324008001e0
3.597530583e0,-1.260717988e0,-4.748775624e-3,-2.538738549e-1,1.286034343e0
3.607563583e0,-1.214427710e0,-5.432751402e-2,-3.079069853e-1,1.254030642e0
3.617595583e0,-1.186697245e0,-1.082094237e-1,-1.745975167e-1,1.204343773e0
3.627627583e0,-1.116508245e0,-1.161895841e-1,-2.185465991e-1,1.143614138e0
3.637660583e0,-9.594221711e-1,-7.328254730e-2,-1.220728979e-1,9.699293926e-1
3.647692583e0,-8.224244118e-1,-3.837463632e-2,-1.711051464e-1,8.409111112e-1
3.657725583e0,-6.794458628e-1,-2.252266183e-2,-2.111786753e-1,7.118640205e-1
3.667757583e0,-5.049571395e-1,-3.523020074e-2,-2.105816007e-1,5.482403582e-1
3.677789583e0,-3.194321990e-1,-3.586716950e-3,-1.992903948e-1,3.765188651e-1
3.687822583e0,-1.651867032e-1,3.186528385e-2,-1.940306574e-1,2.568072025e-1
3.697854583e0,-2.570233494e-2,1.977650821e-2,-2.051069587e-1,2.076549658e-1
3.707887583e0,1.136749983e-1,2.013816498e-2,-2.006946206e-1,2.315294402e-1
3.717919583e0,2.622456253e-1,-5.277516320e-3,-1.715739667e-1,3.134298107e-1
3.727952583e0,4.054331481e-1,-5.266420916e-2,-1.702298671e-1,4.428631439e-1
3.737984583e0,5.257970691e-1,-6.200589612e-2,-1.812080443e-1,5.595923912e-1
3.748016583e0,6.262072921e-1,-7.603409886e-2,-1.884877980e-1,6.583649496e-1
3.758049583e0,7.020136118e-1,-8.390133828e-2,-2.028073370e-1,7.355225093e-1
3.768081583e0,7.571269870e-1,-5.846761912e-2,-2.111579478e-1,7.881924992e-1
3.778114583e0,7.984009981e-1,-4.650697857e-2,-2.057338059e-1,8.257926203e-1
3.788146583e0,8.427511454e-1,-5.079227313e-2,-2.063822895e-1,8.691392279e-1
3.798179583e0,8.917657137e-1,-8.149475604e-2,-2.000140250e-1,9.175473250e-1
3.808211583e0,9.321421981e-1,-8.471424878e-2,-1.499077231e-1,9.479123941e-1
3.818244583e0,9.468827248e-1,-9.280227870e-2,-1.171447337e-1,9.586042176e-1
3.828276583e0,9.334089756e-1,-6.484015286e-2,-8.637350053e-2,9.396366014e-1
3.838308583e0,8.930047750e-1,-2.098052204e-2,-9.416527301e-2,8.982008735e-1
3.848341583e0,8.167161345e-1,7.219956722e-3,-1.105604917e-1,8.241971818e-1
3.858373583e0,7.441094518e-1,-8.662356064e-3,-1.293544620e-1,7.553187999e-1
3.868406583e0,6.913437247e-1,-6.840877235e-2,-1.579413563e-1,7.124474562e-1
3.878438583e0,6.282853484e-1,-7.897339761e-2,-1.564876735e-1,6.522788273e-1
3.888471583e0,5.321065784e-1,-7.075142115e-2,-1.531712413e-1,5.582155529e-1
3.898503583e0,4.260188043e-1,-6.878372282e-2,-1.490753293e-1,4.565596083e-1
3.908535583e0,3.081118762e-1,-3.802740574e-2,-1.314657032e-1,3.371383144e-1
3.918568583e0,1.720487475e-1,-2.049097093e-3,-1.156338528e-1,2.073069180e-1
3.928600583e0,4.660133645e-2,1.466889679e-2,-1.104345620e-1,1.207586584e-1
3.938633583e0,-8.525364846e-2,4.975010827e-2,-1.142606884e-1,1.509925918e-1
3.948665583e0,-2.205169201e-1,7.640754431e-2,-1.339097619e-1,2.690681126e-1
3.958698583e0,-3.511957228e-1,7.603399456e-2,-1.400896311e-1,3.856743559e-1
3.968730583e0,-4.828900993e-1,4.188055545e-2,-1.631462127e-1,5.114230300e-1
3.978762583e0,-6.208010912e-1,5.481186789e-3,-1.637245715e-1,6.420512235e-1
3.988795583e0,-7.451656461e-1,-1.957329921e-2,-1.588762850e-1,7.621657484e-1
3.998827583e0,-8.581094146e-1,-1.857719943e-2,-1.695446223e-1,8.748955702e-1
4.008860583e0,-9.541941285e-1,-6.296250504e-4,-1.414224356e-1,9.646176116e-1
4.018892583e0,-1.041643739e0,1.550066378e-2,-1.265413612e-1,1.049416345e0
4.028925583e0,-1.140567422e0,2.402437851e-2,-1.292465925e-1,1.148118416e0
4.038957583e0,-1.239137411e0,2.219578810e-2,-1.087999120e-1,1.244102728e0
4.048990583e0,-1.314909458e0,9.293838404e-3,-7.056996971e-2,1.316834606e0
4.059022583e0,-1.373188496e0,-1.971713826e-2,-7.107809931e-2,1.375168174e0
4.069054583e0,-1.414008379e0,-3.227687255e-2,-8.512175083e-2,1.416935851e0
4.079087583e0,-1.434064388e0,-7.275276631e-2,-9.067796916e-2,1.438768963e0
4.089119583e0,-1.431355715e0,-9.088889509e-2,-8.696099371e-2,1.436872363e0
4.099152583e0,-1.399878502e0,-5.388964713e-2,-9.969023615e-2,1.404457923e0
4.109184583e0,-1.333657742e0,-6.431052461e-3,-1.075415015e-1,1.338002057e0
4.119217583e0,-1.244739652e0,1.856691763e-2,-1.079912484e-1,1.249553376e0
4.129249583e0,-1.157877684e0,2.637344040e-2,-1.017152369e-1,1.162635918e0
4.139281583e0,-1.076105237e0,6.297529489e-2,-7.088462263e-2,1.080274502e0
4.149314583e0,-9.908420444e-1,8.400334418e-2,-3.290368244e-2,9.949407877e-1
4.159346583e0,-9.030522108e-1,8.521924168e-2,2.600629814e-4,9.070643209e-1
4.169379583e0,-8.091302514e-1,8.641366661e-2,3.390164301e-2,8.144374788e-1
4.179411583e0,-7.094796896e-1,9.743851423e-2,5.203084648e-2,7.180270907e-1
4.189444583e0,-6.028254032e-1,1.085881069e-1,5.920060724e-2,6.153816341e-1
4.199476583e0,-4.705962539e-1,1.114678755e-1,5.493096262e-2,4.867271639e-1
4.209509583e0,-3.247027099e-1,1.387684792e-1,3.091590852e-2,3.544634453e-1
4.219541583e0,-1.648259312e-1,1.698289067e-1,1.611222699e-2,2.372109799e-1
4.229573583e0,7.563407533e-3,1.834898591e-1,9.563513100e-3,1.838945195e-1
4.239606583e0,1.785451025e-1,1.894616783e-1,2.640514821e-2,2.616702371e-1
4.249638583e0,3.350396454e-1,1.734946966e-1,5.274673924e-2,3.809648176e-1
4.259671583e0,4.583821297e-1,1.632754058e-1,9.832554311e-2,4.964281895e-1
4.269703583e0,5.334550142e-1,1.748982370e-1,1.520625353e-1,5.816241571e-1
4.279736583e0,5.859569907e-1,1.848715991e-1,2.251580507e-1,6.543846353e-1
4.289768583e0,6.317790747e-1,1.997525394e-1,2.998368144e-1,7.272881076e-1
4.299800583e0,6.731928587e-1,2.276627719e-1,3.556661606e-1,7.946806783e-1
4.309833583e0,6.988737583e-1,2.587170899e-1,3.846267164e-1,8.386279113e-1
4.319865583e0,7.217297554e-1,2.772630155e-1,3.969665766e-1,8.691093617e-1
4.329898583e0,7.382746339e-1,2.873433530e-1,3.907209337e-1,8.833337340e-1
4.339930958e0,7.299574614e-1,3.114112914e-1,3.474171460e-1,8.663218577e-1
4.349963958e0,6.905357838e-1,3.466702104e-1,3.044579625e-1,8.304905504e-1
4.359995958e0,6.340379119e-1,3.510312140e-1,2.544061244e-1,7.680816773e-1
4.370028958e0,5.764862299e-1,3.758478761e-1,2.042111307e-1,7.178441231e-1
4.380060958e0,5.071557164e-1,4.341569245e-1,2.039168179e-1,6.980553161e-1
4.390092958e0,4.238533974e-1,4.941747189e-1,1.825739741e-1,6.761609359e-1
4.400125958e0,3.175693750e-1,5.223268270e-1,1.660097539e-1,6.334310228e-1
4.410157958e0,1.876526475e-1,5.641192794e-1,1.408884227e-1,6.109775979e-1
4.420190958e0,4.653780907e-2,5.235694051e-1,5.514674634e-2,5.285185458e-1
4.430222958e0,-1.024886891e-1,4.384854436e-1,1.514953095e-2,4.505584578e-1
4.440255958e0,-2.317184657e-1,3.211529255e-1,-2.169364505e-2,3.966147540e-1
4.450287958e0,-3.380398452e-1,2.036713064e-1,-3.840737790e-2,3.965199423e-1
4.460320958e0,-4.327934384e-1,8.148729801e-2,-6.845574826e-2,4.456865822e-1
4.470352958e0,-5.031099319e-1,1.568990946e-2,-7.946313173e-2,5.095882320e-1
4.480384958e0,-5.512763858e-1,-1.024569720e-1,-7.665109634e-2,5.659315111e-1
4.490417958e0,-6.002250314e-1,-1.830831170e-1,-6.304820627e-2,6.306858111e-1
4.500449958e0,-6.808916330e-1,-1.998852640e-1,-5.429306254e-2,7.116988628e-1
4.510482958e0,-7.794629335e-1,-1.499392688e-1,-3.303571045e-2,7.944404366e-1
4.520514958e0,-8.867201805e-1,-6.788604707e-2,1.216579042e-2,8.893982237e-1
4.530547958e0,-1.020687699e0,3.494232893e-2,4.862686247e-2,1.022442623e0
4.540579958e0,-1.171839356e0,1.453643590e-1,8.633252233e-2,1.183972795e0
4.550611958e0,-1.299499869e0,2.565055192e-1,9.051847458e-2,1.327662828e0
4.560644958e0,-1.379612923e0,3.513229489e-1,7.718643546e-2,1.425733978e0
4.570676958e0,-1.418205857e0,4.204437137e-1,7.737871259e-2,1.481238750e0
4.580709958e0,-1.463061810e0,4.308810234e-1,9.354645014e-2,1.528057346e0
4.590741958e0,-1.529940724e0,3.954258263e-1,7.791022956e-2,1.582134700e0
4.600774958e0,-1.595263362e0,3.319968283e-1,6.644003838e-2,1.630797770e0
4.610806958e0,-1.660490274e0,2.925674021e-1,1.949543320e-2,1.686180212e0
4.620839958e0,-1.713586092e0,2.644718885e-1,-4.020004347e-2,1.734341004e0
4.630871958e0,-1.749287367e0,2.299807668e-1,-1.169832349e-1,1.768214501e0
4.640904958e0,-1.760546803e0,1.335855424e-1,-1.934059411e-1,1.776168912e0
4.650936958e0,-1.745397687e0,1.676837727e-2,-2.887290120e-1,1.769197193e0
4.660968958e0,-1.715857267e0,-1.310221553e-1,-3.870476484e-1,1.763842070e0
4.671001958e0,-1.656433821e0,-2.265816927e-1,-4.658431113e-1,1.735546620e0
4.681033958e0,-1.488428354e0,-3.550944626e-1,-4.451424479e-1,1.593631966e0
4.691066958e0,-1.227519274e0,-4.575918019e-1,-3.488119245e-1,1.355678274e0
4.701098958e0,-9.332565665e-1,-4.827957749e-1,-2.702630758e-1,1.084943183e0
4.711131958e0,-6.275193095e-1,-4.345009327e-1,-2.065096647e-1,7.907071430e-1
4.721163958e0,-2.820103765e-1,-3.059469759e-1,-1.723375767e-1,4.503705640e-1
4.731195958e0,9.164366871e-2,-2.098017782e-1,-1.206789091e-1,2.588025256e-1
4.741228958e0,5.000637770e-1,-1.589261591e-1,-5.715615675e-2,5.278144857e-1
4.751260958e0,1.007941842e0,-1.230448559e-1,4.564452544e-2,1.016449810e0
4.761293958e0,1.607605934e0,-1.246941909e-1,1.327219158e-1,1.617887693e0
4.771325958e0,2.292343616e0,-1.199894473e-1,2.263011336e-1,2.306609834e0
4.781358958e0,3.033893347e0,-7.494515926e-2,2.647486925e-1,3.046344939e0
4.791390958e0,3.857625008e0,-3.060139716e-2,3.018182516e-1,3.869535037e0
4.801423958e0,4.779494286e0,-4.158204049e-2,3.258318007e-1,4.790768316e0
4.811455958e0,5.767633915e0,-3.610125184e-2,3.605916500e-1,5.779007754e0
4.821487958e0,6.804228306e0,-1.220031176e-2,3.916660249e-1,6.815502473e0
4.831520958e0,7.854617596e0,4.078008235e-2,3.788216114e-1,7.863853152e0
4.841552958e0,8.893625259e0,1.081153676e-1,3.841873705e-1,8.902575982e0
4.851585958e0,9.950009346e0,6.674502790e-2,4.332971275e-1,9.959663011e0
4.861617958e0,1.102076817e1,-3.995105997e-2,5.798642039e-1,1.103608488e1
4.871650958e0,1.210274887e1,-1.144181043e-1,6.686923504e-1,1.212174786e1
4.881682958e0,1.316194153e1,-6.672233343e-3,6.413182020e-1,1.317755813e1
4.891715958e0,1.416399384e1,3.204731345e-1,5.932723880e-1,1.418003514e1
4.901747958e0,1.507223797e1,9.076412916e-1,5.268797278e-1,1.510873166e1
4.911779958e0,1.595152760e1,1.215155125e0,8.285298944e-1,1.601918526e1
4.921812958e0,1.676825142e1,1.471920133e0,1.093195677e0,1.686819141e1
4.931844958e0,1.758669281e1,1.771271944e0,1.217698693e0,1.771756074e1
4.941877958e0,1.855791855e1,2.685896873e0,1.076315641e0,1.878214147e1
4.951909958e0,2.019871521e1,2.614028215e0,1.856540680e0,2.045160099e1
4.961942958e0,2.178310013e1,1.675777793e0,2.887449741e0,2.203744650e1
4.971974958e0,2.274144173e1,1.689083219e0,4.541741848e0,2.325195891e1
4.982007958e0,2.259579277e1,2.116540432e0,5.770324707e0,2.341679401e1
4.992039958e0,2.224390984e1,3.040673494e0,5.693839550e0,2.316154202e1
5.002071958e0,2.216013718e1,4.314355373e0,5.853891373e0,2.332280828e1
5.012104958e0,2.179669571e1,5.562467575e0,6.015338898e0,2.328564561e1
5.022136958e0,2.137088776e1,6.834356308e0,6.172872543e0,2.327074612e1
5.032169958e0,2.094736099e1,8.101972580e0,6.364721298e0,2.334402642e1
5.042201958e0,2.031746864e1,9.317478180e0,6.527061939e0,2.328556354e1
5.052234958e0,1.966153526e1,1.051505184e1,6.663503170e0,2.327110996e1
5.062266958e0,1.888162613e1,1.169916248e1,6.699096680e0,2.320051949e1
5.072299958e0,1.799362755e1,1.285271549e1,6.769874573e0,2.312561631e1
5.082331958e0,1.706003571e1,1.396423054e1,6.818315983e0,2.307669789e1
5.092363958e0,1.600645447e1,1.503889656e1,6.841111660e0,2.300382149e1
5.102396958e0,1.490565491e1,1.605766106e1,6.857069969e0,2.295749192e1
5.112428958e0,1.372520161e1,1.700042152e1,6.841061115e0,2.289531848e1
5.122461958e0,1.249099731e1,1.785665512e1,6.809971809e0,2.283113799e1
5.132493958e0,1.120944214e1,1.862694359e1,6.760886192e0,2.276673456e1
5.142526958e0,9.888706207e0,1.930964088e1,6.689835548e0,2.270248095e1
5.152558958e0,8.544870377e0,1.988629913e1,6.606253624e0,2.263011909e1
5.162591958e0,7.183568478e0,2.036248398e1,6.510871410e0,2.255273501e1
5.172623958e0,5.815815926e0,2.074187660e1,6.400499821e0,2.247255121e1
5.182655958e0,4.451524258e0,2.103684616e1,6.278130054e0,2.240044378e1
5.192688958e0,3.098185778e0,2.124032211e1,6.147037983e0,2.232792231e1
5.202720958e0,1.770122528e0,2.135649300e1,6.012266159e0,2.225714427e1
5.212753958e0,4.684687555e-1,2.138694572e1,5.870269299e0,2.218289819e1
5.222785958e0,-7.927866578e-1,2.135303688e1,5.724322319e0,2.212122421e1
5.232818958e0,-2.017605066e0,2.123821831e1,5.582136631e0,2.205204971e1
5.242850958e0,-3.195949078e0,2.106718445e1,5.438872814e0,2.199140033e1
5.252883958e0,-4.329700947e0,2.083790016e1,5.301287651e0,2.193326342e1
5.262915958e0,-5.422416210e0,2.056611061e1,5.165193558e0,2.188713612e1
5.272947958e0,-6.472192764e0,2.024213219e1,5.040194511e0,2.184117111e1
5.282980958e0,-7.473996639e0,1.988318062e1,4.917113781e0,2.180319943e1
5.293012958e0,-8.429095268e0,1.948002625e1,4.802342415e0,2.176197515e1
5.303045958e0,-9.342211723e0,1.905081749e1,4.700153351e0,2.173251040e1
5.313077958e0,-1.021561146e1,1.858315849e1,4.606577396e0,2.170053115e1
5.323110958e0,-1.103986645e1,1.809184647e1,4.521135330e0,2.167104576e1
5.333145625e0,-1.182001686e1,1.756694603e1,4.450032234e0,2.163592333e1
5.343178625e0,-1.256593323e1,1.702420998e1,4.386993408e0,2.160953758e1
5.353210625e0,-1.326996422e1,1.646642113e1,4.331192017e0,2.158689879e1
5.363242625e0,-1.394418812e1,1.588291359e1,4.290671825e0,2.156657578e1
5.373275625e0,-1.457832909e1,1.527547836e1,4.260120392e0,2.154104324e1
5.383307625e0,-1.518238449e1,1.465403557e1,4.241856098e0,2.152298540e1
5.393340625e0,-1.575317860e1,1.400645065e1,4.236298561e0,2.150091908e1
5.403372625e0,-1.630034447e1,1.333750343e1,4.241019726e0,2.148433094e1
5.413405625e0,-1.681507301e1,1.264834976e1,4.261113167e0,2.146822111e1
5.423437625e0,-1.730867767e1,1.194437885e1,4.291809082e0,2.146341385e1
5.433470625e0,-1.777284622e1,1.121495342e1,4.337579727e0,2.145842121e1
5.443502625e0,-1.821948242e1,1.046285915e1,4.395267963e0,2.146483967e1
5.453534625e0,-1.863930893e1,9.687430382e0,4.468085766e0,2.147635759e1
5.463567625e0,-1.902195358e1,8.882792473e0,4.550983906e0,2.148139136e1
5.473599625e0,-1.935473251e1,8.046565056e0,4.638839245e0,2.146792280e1
5.483632625e0,-1.965561485e1,7.179901600e0,4.743109703e0,2.145673022e1
5.493664625e0,-1.991288376e1,6.285067558e0,4.853126049e0,2.143776682e1
5.503697625e0,-2.014173698e1,5.366797447e0,4.967485905e0,2.142820571e1
5.513729625e0,-2.033386803e1,4.417658329e0,5.091536045e0,2.142208284e1
5.523762625e0,-2.049515343e1,3.442198038e0,5.218818665e0,2.142746158e1
5.533794625e0,-2.060425949e1,2.432334900e0,5.352704525e0,2.142669382e1
5.543826625e0,-2.066899109e1,1.396005154e0,5.495135784e0,2.143251129e1
5.553859625e0,-2.068302727e1,3.289473355e-1,5.634166718e0,2.143920843e1
5.563891625e0,-2.065586090e1,-7.552469969e-1,5.779256821e0,2.146240427e1
5.573924625e0,-2.056453705e1,-1.857416987e0,5.920539379e0,2.148029256e1
5.583956625e0,-2.041389084e1,-2.970270395e0,6.060726643e0,2.150074075e1
5.593989625e0,-2.019271278e1,-4.086965084e0,6.195676327e0,2.151360821e1
5.604021625e0,-1.989452362e1,-5.201260090e0,6.329808235e0,2.151538168e1
5.614053625e0,-1.951758003e1,-6.311515808e0,6.450655937e0,2.150307243e1
5.624086625e0,-1.905857849e1,-7.414720058e0,6.564425468e0,2.147787628e1
5.634118625e0,-1.850949287e1,-8.501304626e0,6.666512012e0,2.143165624e1
5.644151625e0,-1.789141083e1,-9.578897476e0,6.761191368e0,2.139092254e1
5.654183625e0,-1.719585800e1,-1.063616467e1,6.834335804e0,2.134323493e1
5.664216625e0,-1.642553711e1,-1.167466068e1,6.898414612e0,2.129986140e1
5.674248625e0,-1.558711529e1,-1.268576241e1,6.943611622e0,2.126265442e1
5.684281625e0,-1.468707180e1,-1.366883087e1,6.968810081e0,2.123938157e1
5.694313625e0,-1.372903919e1,-1.459411144e1,6.968426228e0,2.121399467e1
5.704345625e0,-1.272555161e1,-1.546169281e1,6.950698376e0,2.119707093e1
5.714378625e0,-1.169128323e1,-1.625059891e1,6.911319733e0,2.117863095e1
5.724410625e0,-1.063586712e1,-1.695451927e1,6.849732876e0,2.115410678e1
5.734443625e0,-9.555255890e0,-1.756809235e1,6.775641918e0,2.111516297e1
5.744475625e0,-8.451173782e0,-1.808938599e1,6.691504002e0,2.105764587e1
5.754508625e0,-7.340974331e0,-1.851363754e1,6.590390682e0,2.097803443e1
5.764540625e0,-6.221875191e0,-1.884182549e1,6.480945110e0,2.087411718e1
5.774573625e0,-5.089526653e0,-1.908056450e1,6.363119125e0,2.074754222e1
5.784605625e0,-3.943697453e0,-1.925624657e1,6.243055820e0,2.062356728e1
5.794637625e0,-2.796285868e0,-1.935603905e1,6.117835999e0,2.049154410e1
5.804670625e0,-1.669311047e0,-1.940980721e1,5.990936279e0,2.038181868e1
5.814702625e0,-5.560489893e-1,-1.942869377e1,5.855128765e0,2.029940553e1
5.824735625e0,5.248000622e-1,-1.941750717e1,5.713919163e0,2.024756460e1
5.834767625e0,1.556596518e0,-1.937909508e1,5.566671371e0,2.022276314e1
5.844800625e0,2.519458532e0,-1.931126595e1,5.421433926e0,2.021545472e1
5.854832625e0,3.416197777e0,-1.920974350e1,5.276241302e0,2.021196118e1
5.864864625e0,4.250640869e0,-1.905101776e1,5.131761074e0,2.018276981e1
5.874897625e0,5.032055855e0,-1.883212090e1,4.986529350e0,2.012053276e1
5.884929625e0,1.958793640e0,-1.750615311e1,3.952545166e0,1.805338978e1
5.894962625e0,-1.597824669e1,3.498997450e0,-5.660461903e0,1.730861576e1
5.904994625e0,-1.776236725e1,1.714172840e0,-5.701028824e0,1.873344091e1
5.915027625e0,5.817102790e-1,-1.423248410e0,1.834414601e0,2.393553805e0
5.925059625e0,3.585594654e0,-1.709333539e0,1.011882305e0,4.099050618e0
5.935091625e0,1.824355006e0,-8.767673373e-2,6.551979184e-1,1.940423333e0
5.945124625e0,2.892840803e-1,1.554681361e-1,-2.538507283e-1,4.150853077e-1
5.955156625e0,-1.192661166e0,4.122107327e-1,-8.138498664e-1,1.501569163e0
5.965189625e0,-3.182972193e0,6.121594906e-1,-1.113950133e0,3.427380358e0
5.975221625e0,-4.537937164e0,7.890040278e-1,-1.161335707e0,4.750168596e0
5.985254625e0,-5.273765564e0,9.064635038e-1,-1.127348304e0,5.468564117e0
5.995286625e0,-5.600687504e0,9.673212767e-1,-1.180465102e0,5.804903860e0
6.005319625e0,-5.545657635e0,1.034819007e0,-1.141469002e0,5.755703299e0
6.015351625e0,-5.564793110e0,1.086155176e0,-1.152113914e0,5.785673850e0
6.025383625e0,-5.542377472e0,1.137470722e0,-1.132997632e0,5.770222814e0
6.035416625e0,-5.523302078e0,1.198373437e0,-1.115866542e0,5.760913372e0
6.045448625e0,-5.522089481e0,1.247684360e0,-1.113207936e0,5.769698468e0
6.055481625e0,-5.498793602e0,1.298667192e0,-1.097284913e0,5.755632175e0
6.065513625e0,-5.496222496e0,1.349752069e0,-1.092586994e0,5.764029729e0
6.075546625e0,-5.474986076e0,1.401970267e0,-1.078180909e0,5.753561266e0
6.085578625e0,-5.463561535e0,1.454619527e0,-1.069789171e0,5.754204679e0
6.095610625e0,-5.449917316e0,1.506491780e0,-1.056176901e0,5.752097521e0
6.105643625e0,-5.436297894e0,1.559572339e0,-1.050694704e0,5.752352565e0
6.115675625e0,-5.420145512e0,1.615333915e0,-1.038474202e0,5.750279097e0
6.125708625e0,-5.402814388e0,1.667126894e0,-1.030357599e0,5.747290855e0
6.135740625e0,-5.385752678e0,1.716170073e0,-1.020519018e0,5.743956014e0
6.145773625e0,-5.362828732e0,1.765744209e0,-1.011390090e0,5.735912702e0
6.155805625e0,-5.345655918e0,1.818291306e0,-1.006287575e0,5.735401917e0
6.165837625e0,-5.322548389e0,1.870404243e0,-9.973134398e-1,5.729098314e0
6.175870625e0,-5.305046082e0,1.918556571e0,-9.898952246e-1,5.727500834e0
6.185902625e0,-5.283140182e0,1.970803022e0,-9.824899435e-1,5.723715684e0
6.195935625e0,-5.261929035e0,2.020354986e0,-9.761795998e-1,5.720372195e0
6.205967625e0,-5.240582466e0,2.070198298e0,-9.680578113e-1,5.717216237e0
6.216000625e0,-5.215487480e0,2.117114782e0,-9.618909955e-1,5.710404447e0
6.226032625e0,-5.195135117e0,2.167040825e0,-9.541582465e-1,5.709283035e0
6.236064625e0,-5.174746037e0,2.214513779e0,-9.489768147e-1,5.708119201e0
6.246097625e0,-5.152453423e0,2.261207581e0,-9.436161518e-1,5.705370052e0
6.256129625e0,-5.126279831e0,2.306797743e0,-9.371891618e-1,5.698980984e0
6.266162625e0,-5.102669716e0,2.353617668e0,-9.316900969e-1,5.696033777e0
6.276194625e0,-5.078632832e0,2.400855541e0,-9.244553447e-1,5.693086724e0
6.286227625e0,-5.055737495e0,2.447538137e0,-9.210219383e-1,5.692030039e0
6.296259625e0,-5.030249596e0,2.486671209e0,-9.162508845e-1,5.685636322e0
6.306292625e0,-5.006181240e0,2.532889843e0,-9.120189548e-1,5.684114719e0
6.316324625e0,-4.981311798e0,2.576004267e0,-9.043847322e-1,5.680420491e0
6.326356625e0,-4.955822945e0,2.616876364e0,-9.020111561e-1,5.676429079e0
6.336386625e0,-4.932383060e0,2.658749104e0,-8.967889547e-1,5.674643591e0
6.346418625e0,-4.907622814e0,2.701735020e0,-8.914642334e-1,5.672639798e0
6.356451625e0,-4.883437157e0,2.738370895e0,-8.902647495e-1,5.669144993e0
6.366483625e0,-4.860060215e0,2.779718399e0,-8.863641024e-1,5.668567808e0
6.376516625e0,-4.836007595e0,2.818935871e0,-8.812649250e-1,5.666568342e0
6.386548625e0,-4.814104080e0,2.854490757e0,-8.765088916e-1,5.664978677e0
6.396580625e0,-4.790806770e0,2.891027212e0,-8.716462255e-1,5.663005827e0
6.406613625e0,-4.772159576e0,2.923351765e0,-8.717613220e-1,5.663873265e0
6.416645625e0,-4.750848770e0,2.958184481e0,-8.683218360e-1,5.663515010e0
6.426678625e0,-4.729712486e0,2.992400408e0,-8.660387397e-1,5.663449788e0
6.436710625e0,-4.710958004e0,3.022925138e0,-8.614314795e-1,5.663326399e0
6.446742625e0,-4.688315868e0,3.056029797e0,-8.581429720e-1,5.661804762e0
6.456775625e0,-4.669692993e0,3.081560135e0,-8.552377224e-1,5.659812460e0
6.466807625e0,-4.651790619e0,3.116998911e0,-8.513271809e-1,5.663885251e0
6.476840625e0,-4.641213417e0,3.144429922e0,-8.511876464e-1,5.670345838e0
6.486872625e0,-5.550288677e0,-1.685018182e0,-8.104818463e-1,5.856779960e0
6.496905625e0,-1.101348400e1,-1.129950905e1,-2.989841700e-1,1.578179730e1
6.506937625e0,-1.660723114e1,-4.880340576e0,3.507839143e-2,1.730950839e1
6.516970625e0,-1.291671848e1,2.043050051e0,-8.791499138e-1,1.310681405e1
6.527002625e0,-1.363841772e0,2.281674147e0,-5.757514834e-1,2.719851294e0
6.537034625e0,6.092123508e0,-1.002004385e0,-5.771192312e-1,6.200890923e0
6.547067625e0,6.350116730e0,-2.429116488e0,-9.216233492e-1,6.861047951e0
6.557099625e0,4.656489849e0,-2.607573032e0,-2.707592547e-1,5.343748255e0
6.567132625e0,3.358065605e0,-2.393978119e0,1.775978953e-1,4.127865896e0
6.577164625e0,2.882973671e0,-2.331954479e0,1.213908121e-1,3.710024880e0
6.587197625e0,2.848257542e0,-2.305977821e0,1.265656948e-1,3.666895637e0
6.597229625e0,2.813677311e0,-2.305118322e0,1.038686335e-1,3.638837614e0
6.607261625e0,2.828549623e0,-2.295495510e0,1.141138151e-1,3.644587024e0
6.617294625e0,2.819400787e0,-2.297454596e0,1.096868441e-1,3.638591709e0
6.627326625e0,2.822543383e0,-2.293738365e0,1.069971547e-1,3.638603472e0
6.637359625e0,2.823727131e0,-2.289389849e0,1.121546328e-1,3.636938197e0
6.647391625e0,2.820362806e0,-2.287042379e0,1.089131013e-1,3.632749822e0
6.657424625e0,2.824104071e0,-2.284641027e0,1.101599932e-1,3.634182666e0
6.667456625e0,2.823203087e0,-2.277064323e0,1.078375429e-1,3.628653543e0
6.677488625e0,2.826997995e0,-2.273515940e0,1.107204184e-1,3.629469852e0
6.687521625e0,2.826059103e0,-2.270800829e0,1.102235019e-1,3.627022977e0
6.697553625e0,2.831090212e0,-2.266230822e0,1.098368168e-1,3.628076357e0
6.707586625e0,2.829820633e0,-2.261749268e0,1.077225357e-1,3.624223877e0
6.717618625e0,2.835115433e0,-2.256960392e0,1.111990288e-1,3.625481341e0
6.727651625e0,2.835292578e0,-2.253582478e0,1.081407443e-1,3.623425507e0
6.737683625e0,2.667806864e0,-2.185235262e0,1.266398728e-1,3.450867176e0
6.747715625e0,1.805749774e0,-1.741444349e0,1.264111996e-1,2.511840054e0
6.757748625e0,-3.735450506e-1,-1.794534922e-2,-2.206481993e-2,3.746262093e-1
6.767780625e0,-3.291575432e0,2.527744293e0,7.370115072e-2,4.150830266e0
6.777813625e0,-5.824420929e0,3.239902973e0,2.978160083e-1,6.671547407e0
6.787845625e0,-7.512792587e0,2.911947489e0,5.847330093e-1,8.078576813e0
6.797877625e0,-8.259284019e0,3.107055187e0,9.172963500e-1,8.871921835e0
6.807910625e0,-8.261206627e0,3.736146212e0,1.119510889e0,9.135624121e0
6.817942625e0,-7.378544331e0,4.211634636e0,1.103308320e0,8.567267475e0
6.827975625e0,-6.426242828e0,4.065352917e0,1.002913952e0,7.670040914e0
6.838007625e0,-5.231974602e0,3.453534603e0,7.031158209e-1,6.308314462e0
6.848040625e0,-3.788094521e0,2.853956699e0,2.214085758e-1,4.748025979e0
6.858072625e0,-1.990669012e0,2.552552462e0,-1.301047206e-1,3.239631835e0
6.868105625e0,-3.748151064e-1,2.147422552e0,-4.521822333e-1,2.226292603e0
6.878137625e0,6.688883305e-1,1.396195173e0,-7.266271114e-1,1.710192831e0
6.888169625e0,1.298396111e0,6.018193960e-1,-6.916071773e-1,1.589446298e0
6.898202625e0,1.612508774e0,-7.596976310e-2,-4.372481406e-1,1.672465810e0
6.908234625e0,1.684727669e0,-6.946637034e-1,-1.510338038e-1,1.828572172e0
6.918267625e0,1.702468276e0,-1.199856162e0,9.663778543e-2,2.085040024e0
6.928299625e0,1.786053300e0,-1.512694240e0,2.575140297e-1,2.354685484e0
6.938332625e0,1.812700868e0,-1.643870831e0,2.848431170e-1,2.463601296e0
6.948364625e0,1.669052720e0,-1.645642757e0,2.123925984e-1,2.353505403e0
6.958396625e0,1.375269413e0,-1.588868141e0,1.162724718e-1,2.104610942e0
6.968429625e0,5.328159332e-1,-1.389598131e0,1.588405371e-1,1.496698400e0
6.978461625e0,-6.804084778e-2,-1.072661400e0,3.050478101e-1,1.117267292e0
6.988494625e0,-2.511959970e-1,-7.461512685e-1,5.291375518e-1,9.485924800e-1
6.998526625e0,-2.148246616e-1,-3.735816777e-1,6.774154305e-1,8.028726989e-1
7.008558625e0,-2.142743468e-1,-8.034385741e-3,6.538183093e-1,6.880817020e-1
7.018591625e0,-3.413230777e-1,2.852265239e-1,4.451298118e-1,6.292822599e-1
7.028623625e0,-5.800642967e-1,3.968992829e-1,2.110314369e-1,7.338514131e-1
7.038656625e0,-7.834346890e-1,4.161973596e-1,5.121273920e-2,8.886016536e-1
7.048688625e0,-8.635596633e-1,4.343117476e-1,-5.372198671e-2,9.681157152e-1
7.058721625e0,-7.548286915e-1,4.744583666e-1,-1.170793921e-1,8.992133669e-1
7.068753625e0,-5.227213502e-1,5.309138894e-1,-1.550829411e-1,7.610242352e-1
7.078785625e0,-2.385955751e-1,5.554844737e-1,-1.727434248e-1,6.287536400e-1
7.088818625e0,1.182276662e-2,5.260729790e-1,-1.656963974e-1,5.516773089e-1
7.098850625e0,1.991287470e-1,4.333015084e-1,-1.324718744e-1,4.949255020e-1
7.108883625e0,3.350403011e-1,2.632806599e-1,-8.893053979e-2,4.352899610e-1
7.118915625e0,4.301303327e-1,2.316821925e-2,-5.100605264e-2,4.337631691e-1
7.128948625e0,4.734852016e-1,-2.314662933e-1,-1.374205761e-2,5.272131687e-1
7.138980625e0,4.412969053e-1,-4.449463487e-1,2.076585218e-2,6.270178884e-1
7.149012625e0,3.368042111e-1,-5.740658045e-1,5.407615006e-2,6.677670661e-1
7.159045625e0,1.774028391e-1,-6.090365648e-1,7.660489529e-2,6.389566610e-1
7.169077625e0,2.129752189e-2,-5.364884138e-1,8.547051251e-2,5.436714183e-1
7.179110625e0,-1.019503772e-1,-3.817313313e-1,8.829399943e-2,4.048561709e-1
7.189142625e0,-1.791102886e-1,-1.821867973e-1,9.168880433e-2,2.714394250e-1
7.199175625e0,-2.234013081e-1,1.508553699e-2,8.325670660e-2,2.388878336e-1
7.209207625e0,-2.300701886e-1,1.854746640e-1,6.589050591e-2,3.027783041e-1
7.219239625e0,-2.095537335e-1,2.920285463e-1,3.281378001e-2,3.609296098e-1
7.229272625e0,-1.535650194e-1,3.311749399e-1,-1.554925926e-2,3.653776614e-1
7.239304625e0,-6.781443208e-2,3.245918751e-1,-6.311304867e-2,3.375528692e-1
7.249337625e0,1.643585227e-2,2.912440002e-1,-1.041091010e-1,3.097287681e-1
7.259369625e0,7.613806427e-2,2.393555194e-1,-1.195386574e-1,2.781682227e-1
7.269402625e0,9.948166460e-2,1.699723154e-1,-1.098027676e-1,2.254857809e-1
7.279434625e0,1.046487316e-1,8.413997293e-2,-7.690420747e-2,1.547422024e-1
7.289466625e0,9.185465425e-2,-8.108653128e-3,-3.351096064e-2,9.811224310e-2
7.299499625e0,6.298039854e-2,-9.960155189e-2,1.562436484e-2,1.188743897e-1
7.309531625e0,2.178853936e-2,-1.775383800e-1,6.293421984e-2,1.896189148e-1
7.319564625e0,-1.747524180e-2,-2.223607153e-1,1.063410789e-1,2.470993663e-1
7.329596625e0,-4.701041430e-2,-2.371860743e-1,1.261081845e-1,2.727095287e-1
7.339629000e0,-5.602921173e-2,-2.114631236e-1,1.264778376e-1,2.526906579e-1
7.349661000e0,-4.663730785e-2,-1.585250795e-1,9.850265086e-2,1.923746645e-1
7.359693000e0,-2.852807753e-2,-9.795867652e-2,5.870144442e-2,1.177098683e-1
7.369726000e0,-1.177174784e-2,-3.694573417e-2,1.071131881e-2,4.022802098e-2
7.379758000e0,2.117968164e-3,1.676942594e-2,-3.498346359e-2,3.885282692e-2
7.389791000e0,1.668484509e-2,6.333539635e-2,-7.547955215e-2,9.993457499e-2
7.399823000e0,2.409189567e-2,9.994001687e-2,-1.076484025e-1,1.488509488e-1
7.409856000e0,2.721450478e-2,1.356905997e-1,-1.201422364e-1,1.832668139e-1
7.419888000e0,2.713114768e-2,1.696991622e-1,-1.154462844e-1,2.070307934e-1
7.429920000e0,2.621799149e-2,1.887577772e-1,-9.231363237e-2,2.117514776e-1
7.439953000e0,1.750625856e-2,1.776880920e-1,-5.492738262e-2,1.868061682e-1
7.449985000e0,2.090871567e-3,1.296771765e-1,-1.304931566e-2,1.303488645e-1
7.460018000e0,-8.734346367e-3,5.284684896e-2,3.341991827e-2,6.313453246e-2
7.470050000e0,-2.356192470e-2,-4.158416390e-2,7.586392760e-2,8.966461116e-2
7.480082000e0,-3.778906167e-2,-1.204646006e-1,1.011823416e-1,1.617949302e-1
7.490115000e0,-4.196656868e-2,-1.732991636e-1,1.122351661e-1,2.106905919e-1
7.500147000e0,-4.139372334e-2,-1.906781644e-1,1.057248041e-1,2.219219162e-1
7.510180000e0,-3.492067382e-2,-1.677004397e-1,8.162446320e-2,1.897510051e-1
7.520212000e0,-1.288381778e-2,-1.261636466e-1,4.755038396e-2,1.354411219e-1
7.530245000e0,8.909602650e-3,-7.306089997e-2,1.896061935e-2,7.600513937e-2
7.540277000e0,2.455487475e-2,-2.562920004e-2,-1.433741488e-2,3.828001089e-2
7.550309000e0,3.736100346e-2,1.786211878e-2,-3.930256143e-2,5.709282969e-2
7.560342000e0,4.393794760e-2,5.146668479e-2,-6.209735945e-2,9.184467831e-2
7.570374000e0,4.384258389e-2,7.215730101e-2,-7.930517197e-2,1.158367755e-1
7.580407000e0,3.390100598e-2,9.830980748e-2,-8.585335314e-2,1.348513800e-1
7.590439000e0,1.885938458e-2,1.177369729e-1,-8.249609172e-2,1.449940561e-1
7.600472000e0,1.873742789e-3,1.292695254e-1,-6.562869251e-2,1.449870559e-1
7.610504000e0,-1.988895610e-2,1.187906712e-1,-4.196176678e-2,1.275444394e-1
7.620536000e0,-3.739710897e-2,8.494109660e-2,-1.144726481e-2,9.351242443e-2
7.630569000e0,-4.450687394e-2,2.798060700e-2,1.828422770e-2,5.566048130e-2
7.640601000e0,-4.467172176e-2,-3.396132216e-2,5.085921288e-2,7.573370228e-2
7.650634000e0,-3.308423981e-2,-8.376072347e-2,7.226446271e-2,1.154667844e-1
7.660666000e0,-2.125075087e-2,-1.110701039e-1,7.831116766e-2,1.375529039e-1
7.670699000e0,-1.708354335e-3,-1.145432517e-1,7.633798569e-2,1.376610440e-1
7.680731000e0,1.668636687e-2,-9.506861866e-2,6.096541509e-2,1.141632994e-1
7.690763000e0,2.954369225e-2,-7.293912023e-2,3.521889821e-2,8.621667938e-2
7.700796000e0,3.432752565e-2,-4.855122045e-2,1.364010200e-2,6.100534736e-2
7.710828000e0,3.207114339e-2,-2.515367605e-2,-7.018320262e-3,4.135846318e-2
7.720861000e0,1.777715608e-2,-6.071061362e-3,-2.589134499e-2,3.198822924e-2
7.730893000e0,5.641890224e-3,2.445572801e-2,-3.801234812e-2,4.555054519e-2
7.740925000e0,-5.395581014e-3,5.056402460e-2,-4.653313011e-2,6.892869559e-2
7.750958000e0,-1.278039813e-2,7.405207306e-2,-4.734984413e-2,8.882035713e-2
7.760990000e0,-1.747395098e-2,8.598010242e-2,-4.807049409e-2,1.000434374e-1
7.771023000e0,-2.107728645e-2,9.060415626e-2,-4.170283675e-2,1.019435713e-1
7.781055000e0,-1.581940614e-2,7.702895999e-2,-2.587220445e-2,8.278336337e-2
7.791088000e0,-1.119793393e-2,4.792547226e-2,-8.519656025e-3,4.994826478e-2
7.801120000e0,-4.996496253e-3,7.414801046e-3,7.551988121e-3,1.170370770e-2
7.811152000e0,-7.619024254e-4,-3.281838447e-2,2.061077207e-2,3.876120199e-2
7.821185000e0,4.096768796e-3,-6.807357818e-2,3.429728746e-2,7.633544058e-2
7.831217000e0,1.223020256e-2,-7.906739414e-2,3.808902204e-2,8.861153576e-2
7.841250000e0,1.227787323e-2,-7.292214781e-2,3.846133128e-2,8.335262333e-2
7.851282000e0,1.253933087e-2,-5.457982421e-2,3.309506178e-2,6.504978973e-2
7.861315000e0,1.120029297e-2,-3.585913405e-2,2.703770250e-2,4.628565019e-2
7.871347000e0,4.821302369e-3,-1.904606074e-2,1.759116724e-2,2.637132062e-2
7.881379000e0,7.245615125e-4,-4.692154005e-3,7.926556282e-3,9.239674945e-3
7.891412000e0,-7.431396283e-3,7.399509661e-3,-4.894364625e-3,1.157295118e-2
7.901444000e0,-1.170896646e-2,2.144635282e-2,-1.416908950e-2,2.824551366e-2
7.911477000e0,-1.448873244e-2,3.711715341e-2,-2.448840998e-2,4.676845805e-2
7.921509000e0,-1.280747820e-2,4.573594034e-2,-3.108719178e-2,5.676461247e-2
7.931542000e0,-1.376632228e-2,5.049698800e-2,-2.906228229e-2,5.986713354e-2
7.941574000e0,-5.632762332e-3,4.510355368e-2,-2.878451347e-2,5.380155000e-2
7.951606000e0,-1.312661916e-3,3.122989461e-2,-2.298207209e-2,3.879697199e-2
7.961639000e0,6.958051119e-3,1.226259582e-2,-1.204979513e-2,1.854678663e-2
7.971671000e0,9.379834868e-3,-7.454650477e-3,-3.449560609e-4,1.198633015e-2
7.981704000e0,1.217881776e-2,-2.814608067e-2,9.053605609e-3,3.197644811e-2
7.991736000e0,1.188858785e-2,-3.847751021e-2,1.427592430e-2,4.272773488e-2
8.001769000e0,8.859241381e-3,-4.504672810e-2,2.140227705e-2,5.065324603e-2
8.011801000e0,4.182504956e-3,-3.611745313e-2,2.205251530e-2,4.252384271e-2
8.021833000e0,2.719188924e-4,-2.600969188e-2,2.089963295e-2,3.336723945e-2
8.031866000e0,-3.330087522e-3,-1.396040991e-2,2.079305239e-2,2.526526381e-2
8.041898000e0,-8.503810503e-3,-1.099472633e-3,1.557512023e-2,1.777942640e-2
8.051931000e0,-1.257057674e-2,6.568868645e-3,6.279498804e-3,1.551133586e-2
8.061963000e0,-1.195538603e-2,1.119371504e-2,-2.192282816e-3,1.652381963e-2
8.071996000e0,-7.182495203e-3,1.676063612e-2,-1.139369980e-2,2.150171053e-2
8.082028000e0,-6.767041981e-3,1.880088262e-2,-2.179281041e-2,2.956674872e-2
8.092060000e0,-1.018435787e-2,2.756245248e-2,-2.234076522e-2,3.691232481e-2
8.102093000e0,-1.045093965e-2,3.032814525e-2,-1.881314255e-2,3.718807425e-2
8.112125000e0,1.715578139e-3,3.343875706e-2,-1.659836806e-2,3.737110521e-2
8.122158000e0,2.574607916e-2,1.819376089e-2,4.586279392e-3,3.185761269e-2
8.132190000e0,3.878169134e-2,-1.307359524e-2,1.765615866e-2,4.457217085e-2
8.142222000e0,1.179720042e-3,-4.046287760e-2,9.802439017e-4,4.049193847e-2
8.152255000e0,-2.969399467e-2,-4.377259687e-2,-1.719761454e-2,5.561952446e-2
8.162287000e0,2.207211219e-3,-2.900163829e-2,-1.036527567e-2,3.087726906e-2
8.172320000e0,2.333858237e-2,-5.160830449e-3,8.332547732e-3,2.531313788e-2
8.182352000e0,-5.118625704e-3,6.629249547e-3,1.637076773e-2,1.838883669e-2
8.192385000e0,-2.927669324e-2,4.033999518e-3,2.230508812e-2,3.702586765e-2
8.202417000e0,-1.686822623e-2,-2.254522638e-3,2.535760403e-2,3.053895890e-2
8.212449000e0,9.636844508e-3,-6.195964292e-3,8.459419943e-3,1.424150734e-2
8.222482000e0,1.823991910e-2,-4.337610211e-3,-1.191456057e-2,2.221410058e-2
8.232514000e0,-1.311186235e-3,5.965396762e-3,-1.736754552e-2,1.841023642e-2
8.242547000e0,-1.164638158e-2,1.854696870e-2,-9.967952967e-3,2.406217650e-2
8.252579000e0,4.133590497e-3,2.616702951e-2,5.587443244e-3,2.707433334e-2
8.262612000e0,1.066659112e-2,1.721987315e-2,2.516818466e-3,2.041162836e-2
8.272644000e0,-5.984631833e-3,4.845235497e-3,-1.509941742e-2,1.694946995e-2
8.282676000e0,-1.735180244e-2,-8.586949669e-3,-9.385870770e-3,2.151546705e-2
8.292709000e0,-2.537517110e-3,-1.356538758e-2,7.974955253e-3,1.593921719e-2
8.302741000e0,6.794465706e-3,-6.098415703e-3,1.180724427e-2,1.492536283e-2
8.312774000e0,3.452851903e-3,1.978036715e-3,8.304069750e-3,9.208278336e-3
8.322806000e0,9.703024291e-3,-3.873993177e-3,-1.624194672e-3,1.057329238e-2
8.332839000e0,7.867307402e-3,-1.327947900e-2,-7.303119637e-3,1.707555693e-2
8.342871833e0,2.051496413e-3,-1.647873409e-2,-1.198355341e-3,1.664912521e-2
8.352903833e0,-6.831372622e-3,-9.552232921e-3,5.326813087e-3,1.289526050e-2
8.362936833e0,-7.582384162e-3,-2.245116048e-4,3.436501138e-3,8.327814546e-3
8.372968833e0,-2.864100970e-3,6.958256476e-3,4.963486455e-3,9.014244580e-3
8.383001833e0,2.482727636e-3,1.374665461e-2,3.150673117e-3,1.431995778e-2
8.393033833e0,-5.829785485e-3,1.120801922e-2,-8.167887107e-3,1.504395139e-2
8.403065833e0,-1.107168570e-2,3.154353006e-3,-1.846153662e-2,2.175684953e-2
8.413098833e0,-1.670194324e-3,3.346367041e-3,-1.350379642e-2,1.401214613e-2
8.423130833e0,1.046263427e-2,9.607193060e-3,2.126029227e-3,1.436262074e-2
8.433163833e0,5.418662913e-3,1.194708701e-2,1.725450903e-2,2.167516731e-2
8.443195833e0,-3.047792474e-3,1.261952333e-3,1.755438186e-2,1.786163165e-2
8.453228833e0,-1.184231136e-3,-6.081945263e-3,8.784734644e-3,1.075007090e-2
8.463260833e0,3.197734244e-3,-1.325037517e-2,-1.960321562e-3,1.377101329e-2
8.473292833e0,7.930456195e-4,-1.408356242e-2,-8.386209607e-3,1.641048943e-2
8.483325833e0,-1.682628877e-3,-1.590596326e-2,-8.190999739e-3,1.797006911e-2
8.493357833e0,-8.038010448e-3,-4.917836748e-3,-2.741604345e-3,9.813823140e-3
8.503390833e0,-5.166855641e-3,3.982714377e-3,8.108113892e-3,1.040672484e-2
8.513422833e0,5.070224404e-3,5.226327106e-3,1.059924625e-2,1.285945923e-2
8.523455833e0,8.343249559e-3,3.336814465e-3,3.714442020e-3,9.723231125e-3
8.533487833e0,7.114324719e-3,3.554820549e-3,-7.917759940e-3,1.122235661e-2
8.543519833e0,2.869512420e-3,3.405683674e-3,-1.329308376e-2,1.401923174e-2
8.553552833e0,-2.562261943e-4,6.224981975e-3,-9.103167802e-3,1.103103424e-2
8.563584833e0,-4.247772042e-3,6.560540292e-3,-2.173090121e-3,8.112125302e-3
8.573617833e0,-2.219242277e-3,6.330975797e-3,5.678707734e-3,8.789426167e-3
8.583649833e0,-8.995922282e-3,6.583976094e-3,4.694669507e-3,1.209608535e-2
8.593682833e0,-7.480132394e-3,-1.853111200e-3,3.635145258e-4,7.714826282e-3
8.603714833e0,-6.252149120e-3,-6.613777950e-3,-1.158748521e-3,9.174645799e-3
8.613746833e0,1.632860629e-3,-5.339455791e-3,1.622162643e-3,5.814416017e-3
8.623779833e0,4.555147141e-3,-8.663879707e-3,7.558614947e-3,1.236708684e-2
8.633811833e0,9.688949795e-4,-4.677619785e-3,1.478387788e-2,1.553647095e-2
8.643844833e0,5.045662168e-3,-4.901058972e-3,1.152922958e-2,1.350563662e-2
8.653876833e0,3.896399867e-3,-4.810587503e-3,2.089937450e-3,6.533875006e-3
8.663908833e0,1.146153547e-3,-4.308049101e-3,-7.282259408e-3,8.538398978e-3
8.673941833e0,-2.626399510e-3,-3.335804446e-3,-9.385302663e-3,1.030094519e-2
8.683973833e0,-2.931064926e-3,1.850169152e-3,-8.519242518e-3,9.197377918e-3
8.694006833e0,-2.140200930e-3,6.487797014e-3,-1.309552928e-3,6.956069220e-3
8.704038833e0,-5.448912270e-3,1.115045883e-2,1.897159265e-3,1.255478356e-2
8.714071833e0,-1.686217729e-4,8.774083108e-3,-1.112317666e-3,8.845915344e-3
8.724103833e0,5.190063966e-4,5.129814148e-3,-3.085758071e-4,5.165227958e-3
8.734135833e0,-4.061486688e-4,-4.637371749e-4,-5.132962950e-3,5.169846956e-3
8.744168833e0,3.242648207e-3,-3.149268683e-3,-2.956360811e-3,5.401178564e-3
8.754200833e0,1.085180906e-3,-9.579824982e-4,1.548747998e-3,2.119898211e-3
8.764233833e0,-7.478728658e-4,-2.802754054e-3,7.603710517e-3,8.138252745e-3
8.774265833e0,-4.461231874e-4,-6.381433457e-3,1.033661142e-2,1.215595552e-2
8.784298833e0,-7.252224605e-4,-2.079096623e-3,4.353820346e-3,4.878969358e-3
8.794330833e0,2.439692034e-4,-5.450012162e-3,3.753367113e-3,6.621927078e-3
8.804362833e0,-1.070567057e-3,-5.886504427e-3,1.981299836e-3,6.302586551e-3
8.814395833e0,2.952256007e-3,-2.274315339e-3,1.686696778e-3,4.090632202e-3
8.824427833e0,1.138588414e-4,-1.664984273e-3,7.924073143e-4,1.847443048e-3
8.834460833e0,-9.211371071e-4,1.753989840e-3,-3.543640487e-4,2.012597279e-3
8.844492833e0,2.165732905e-3,5.752192810e-3,-1.120022731e-3,6.247605306e-3
8.854525833e0,2.175119705e-3,4.545092117e-3,-1.735126367e-3,5.329134226e-3
8.864557833e0,-3.293169721e-4,3.344539087e-3,-3.395340638e-3,4.777314039e-3
8.874589833e0,2.150941193e-1,-1.539467335e0,8.740999699e-1,1.783332810e0
8.884622833e0,5.142528936e-2,-9.398760796e-1,1.678050518e0,1.924023167e0
8.894654833e0,8.147054911e-2,9.118430614e-1,1.531000376e0,1.783832215e0
8.904687833e0,4.875227213e-1,2.117788076e0,1.502048850e0,2.641752352e0
8.914719833e0,1.161634803e0,4.348864079e0,1.286026955e0,4.681439898e0
8.924751833e0,2.280485153e0,7.588968754e0,1.918414474e0,8.153120468e0
8.934784833e0,3.361845493e0,8.295367241e0,2.791566610e0,9.375924857e0
8.944816833e0,3.525516987e0,8.962573051e0,2.999685287e0,1.008737317e1
8.954849833e0,3.187679768e0,6.660914421e0,2.982209444e0,7.963834277e0
8.964881833e0,2.771924734e0,3.343595266e0,2.676398516e0,5.101598284e0
8.974914833e0,2.499363661e0,2.497237206e0,2.529214859e0,4.345105312e0
8.984946833e0,2.187326670e0,2.978962898e0,3.148707628e0,4.855201091e0
8.994978833e0,1.684022427e0,3.323009491e0,3.639314413e0,5.207968223e0
9.005011833e0,1.106498003e0,3.784725904e0,4.128242016e0,5.708841401e0
9.015043833e0,1.374441683e-1,4.873332977e0,4.210053444e0,6.441491691e0
9.025076833e0,-8.193060160e-1,4.530581951e0,3.997738600e0,6.097487112e0
9.035108833e0,-1.524170637e0,3.616674900e0,3.100668192e0,5.001757361e0
9.045141833e0,-2.239299297e0,3.134058952e0,1.617761612e0,4.177791222e0
9.055173833e0,-3.148124456e0,2.885330915e0,-9.082562476e-2,4.271307924e0
9.065205833e0,-3.932568550e0,2.749494314e0,-1.183022857e0,4.942100511e0
9.075238833e0,-4.519614697e0,2.177979469e0,-1.804129481e0,5.331547126e0
9.085270833e0,-4.890109539e0,9.144149423e-1,-1.784065008e0,5.285093561e0
9.095303833e0,-5.144762039e0,9.320150316e-2,-1.407084584e0,5.334524345e0
9.105335833e0,-5.412051678e0,-2.151592523e-1,-9.629527330e-1,5.501261204e0
9.115368833e0,-5.676590443e0,-6.770961285e-1,-4.928558469e-1,5.738034952e0
9.125400833e0,-5.986922264e0,-1.245519280e0,-8.076736927e-1,6.168216377e0
9.135432833e0,-6.341340065e0,-1.608438492e0,-1.487097383e0,6.709033226e0
9.145465833e0,-6.740077972e0,-1.806781411e0,-2.052204370e0,7.273558477e0
9.155497833e0,-7.140964985e0,-1.847265124e0,-2.299854040e0,7.726260283e0
9.165530833e0,-7.530773163e0,-1.733492970e0,-2.325494766e0,8.070035205e0
9.175562833e0,-7.897286892e0,-1.519807696e0,-2.191818714e0,8.335527875e0
9.185594833e0,-8.215909004e0,-1.186259270e0,-1.984732747e0,8.535076795e0
9.195627833e0,-8.486054420e0,-6.697189212e-1,-1.711326838e0,8.682757777e0
9.205659833e0,-8.723577499e0,-2.984103262e-1,-1.352750063e0,8.832880948e0
9.215692833e0,-8.880442619e0,-1.757902205e-1,-8.288481236e-1,8.920770848e0
9.225724833e0,-8.955728531e0,-2.912923098e-1,-4.030838311e-1,8.969526259e0
9.235757833e0,-8.924468040e0,-4.575892389e-1,-2.398536950e-1,8.939409797e0
9.245789833e0,-8.739116669e0,-4.634665847e-1,-1.816918552e-1,8.753283576e0
9.255821833e0,-8.514356613e0,-4.955423474e-1,-2.353002578e-1,8.532010136e0
9.265854833e0,-8.362010956e0,-1.531335711e-1,-5.858913064e-1,8.383909931e0
9.275886833e0,-8.192192078e0,3.954428434e-1,-5.965235829e-1,8.223395069e0
9.285919833e0,-7.937123775e0,1.132808208e0,-3.813875914e-1,8.026621005e0
9.295951833e0,-7.629347801e0,1.266350746e0,-3.608887494e-1,7.742146522e0
9.305984833e0,-7.273294926e0,9.900522828e-1,-3.830209672e-1,7.350355615e0
9.316016833e0,-6.878963470e0,5.406797528e-1,-2.623453140e-1,6.905164595e0
9.326048833e0,-6.484162807e0,-5.047673732e-2,-1.086888909e-1,6.485270117e0
9.336081833e0,-6.101731777e0,-7.951952815e-1,-8.002883196e-2,6.153850082e0
9.346114083e0,-5.692912102e0,-1.529189229e0,-1.253989786e-1,5.896048914e0
9.356147083e0,-5.287031651e0,-2.043105602e0,-2.739516497e-1,5.674683576e0
9.366179083e0,-4.865330219e0,-2.383035660e0,-4.725017548e-1,5.438157317e0
9.376211083e0,-4.449946404e0,-2.619548559e0,-6.346514225e-1,5.202580136e0
9.386244083e0,-4.029347897e0,-2.881460190e0,-6.916670799e-1,5.001685780e0
9.396276083e0,-3.667240143e0,-2.775658607e0,-6.053347588e-1,4.638896543e0
9.406309083e0,-3.368067026e0,-2.453800440e0,-1.299980134e-1,4.169161975e0
9.416341083e0,-3.130621433e0,-2.111230373e0,8.524691314e-2,3.776949998e0
9.426374083e0,-2.961912632e0,-1.539883256e0,7.445924729e-2,3.339118306e0
9.436406083e0,-2.809820414e0,-8.375509977e-1,1.395528615e-1,2.935312152e0
9.446438083e0,-2.701551199e0,-3.619490564e-1,1.249704584e-1,2.728553392e0
9.456471083e0,-2.667097569e0,-1.002668440e-1,1.392767280e-1,2.672613120e0
9.466503083e0,-2.721064568e0,-2.527781762e-2,2.292351127e-1,2.730820405e0
9.476536083e0,-2.887727022e0,-6.463591754e-2,4.757023156e-1,2.927360219e0
9.486568083e0,-3.222951174e0,-1.686741561e-1,8.109356761e-1,3.327684166e0
9.496601083e0,-3.714019060e0,-1.930272877e-1,1.089242101e0,3.875260697e0
9.506633083e0,-4.214546680e0,1.687181443e-1,1.402716160e0,4.445051424e0
9.516665083e0,-4.553729057e0,7.334795594e-1,1.634476542e0,4.893460346e0
9.526698083e0,-4.715605736e0,1.193476319e0,1.626925111e0,5.129152805e0
9.536730083e0,-4.784547329e0,1.337789655e0,1.641022086e0,5.232067258e0
9.546763083e0,-4.797255039e0,1.176334977e0,1.749255538e0,5.239972789e0
9.556795083e0,-4.796316624e0,9.481402636e-1,1.809620142e0,5.213285737e0
9.566828083e0,-4.777563572e0,9.091857076e-1,1.687782645e0,5.147848346e0
9.576860083e0,-4.738769531e0,9.305403233e-1,1.368064284e0,5.019306909e0
9.586892083e0,-4.684300900e0,8.129205108e-1,9.897723198e-1,4.856249985e0
9.596925083e0,-4.622635841e0,5.659120083e-1,5.983869433e-1,4.695432404e0
9.606957083e0,-4.554851532e0,2.564742565e-1,1.651249826e-1,4.565053974e0
9.616990083e0,-4.502791882e0,-2.216771245e-2,-2.131669074e-1,4.507889336e0
9.627022083e0,-4.474989414e0,-2.814197838e-1,-4.561915398e-1,4.506976600e0
9.637054083e0,-4.504465103e0,-4.294522405e-1,-5.521236658e-1,4.558451013e0
9.647087083e0,-4.576585293e0,-2.564477026e-1,-4.818220735e-1,4.609018429e0
9.657119083e0,-4.663875580e0,1.318755001e-1,-3.529355824e-1,4.679069362e0
9.667152083e0,-4.750735283e0,3.619734049e-1,-1.719799042e-1,4.767608159e0
9.677184083e0,-4.830016136e0,3.198411465e-1,7.433263958e-2,4.841165105e0
9.687217083e0,-4.876556873e0,1.397467405e-1,2.446036935e-1,4.884686997e0
9.697249083e0,-4.640085220e0,1.014473677e0,-2.258448899e-1,4.755055584e0
9.707281083e0,-3.794996262e0,1.025508761e0,-7.666658163e-1,4.005176815e0
9.717314083e0,-2.862806797e0,7.905302048e-1,-1.439201117e0,3.300287960e0
9.727346083e0,-2.408978701e0,3.159791231e-1,-1.524083257e0,2.868074434e0
9.737379083e0,-2.135969162e0,1.712490916e-1,-1.877778292e0,2.849165110e0
9.747411083e0,-1.919089079e0,2.089101821e-1,-1.762292981e0,2.613852121e0
9.757444083e0,-1.763054729e0,4.768932983e-2,-1.453384161e0,2.285380005e0
9.767476083e0,-1.638879538e0,-2.321122289e-1,-1.240734696e0,2.068628728e0
9.777508083e0,-1.759753346e0,-5.179753900e-1,-1.088493943e0,2.133037601e0
9.787541083e0,-1.814081550e0,-7.496384382e-1,-8.407675028e-1,2.135354690e0
9.797573083e0,-1.650475979e0,-8.170952797e-1,-6.649700999e-1,1.958034955e0
9.807606083e0,-1.409234047e0,-8.487006426e-1,-5.604527593e-1,1.737912735e0
9.817638083e0,-1.240786076e0,-8.783763051e-1,-3.973482847e-1,1.571299042e0
9.827671083e0,-1.194115281e0,-7.815485597e-1,-3.330124319e-1,1.465478330e0
9.837703083e0,-1.233832717e0,-5.114716887e-1,-3.534018397e-1,1.381607514e0
9.847735083e0,-9.159325361e-1,-7.780011743e-3,-4.100358188e-1,1.003554838e0
9.857768083e0,-1.853821874e-1,8.852648735e-1,-2.953075469e-1,9.514552007e-1
9.867800083e0,5.064492226e-1,1.686086416e0,-1.950789690e-1,1.771280334e0
9.877833083e0,9.843427539e-1,1.934240580e0,-8.100191504e-2,2.171814584e0
9.887865083e0,1.403077722e0,2.044765949e0,2.736663818e-2,2.480008833e0
9.897897083e0,1.706349373e0,1.947136521e0,2.293135785e-2,2.589110786e0
9.907930083e0,1.740524888e0,1.771546364e0,-1.425942034e-2,2.483547208e0
9.917962083e0,1.537696004e0,1.628822088e0,-1.269891486e-2,2.240029388e0
9.927995083e0,1.238939643e0,1.688752294e0,8.639490604e-2,2.096263301e0
9.938027083e0,1.039825559e0,1.775648236e0,2.068181783e-1,2.068075823e0
9.948060083e0,1.044854760e0,1.643399358e0,3.171239197e-1,1.973081473e0
9.958092083e0,1.140818596e0,1.406455159e0,4.247080386e-1,1.860096799e0
9.968124083e0,1.234586120e0,1.154487133e0,5.297021270e-1,1.771335025e0
9.978157083e0,1.236311078e0,9.013116956e-1,6.623544097e-1,1.667195615e0
9.988189083e0,1.191195488e0,6.822027564e-1,8.274935484e-1,1.602839001e0
9.998222083e0,1.108685374e0,4.460798800e-1,9.784729481e-1,1.544532236e0
1.000825408e1,1.003858805e0,1.712166369e-1,1.057031751e0,1.467775105e0
1.001828708e1,9.227432013e-1,-5.781278014e-2,1.020274043e0,1.376864720e0
1.002831908e1,8.092805147e-1,-5.782982707e-2,7.458033562e-1,1.102044412e0
1.003835108e1,6.669383645e-1,7.985860854e-2,2.565428317e-1,7.190260106e-1
1.004838408e1,6.122359633e-1,2.537920773e-1,-3.485281020e-2,6.636701076e-1
1.005841608e1,6.892814636e-1,4.270809591e-1,-1.214248314e-1,8.199091848e-1
1.006844908e1,8.064344525e-1,4.911747277e-1,-1.386645287e-1,9.543673249e-1
1.007848108e1,9.568938613e-1,5.241241455e-1,-1.151049882e-1,1.097087572e0
1.008851308e1,1.083994746e0,6.298638582e-1,-5.017392337e-2,1.254707341e0
1.009854608e1,1.135613322e0,7.462010980e-1,2.718609385e-2,1.359107347e0
1.010857808e1,1.099226832e0,8.534743190e-1,1.221874431e-1,1.397013892e0
1.011861108e1,1.104186654e0,9.191441536e-1,2.160625160e-1,1.452837621e0
1.012864308e1,1.345826983e0,8.492180705e-1,3.514978290e-1,1.629715412e0
1.013867608e1,1.477489710e0,7.024238110e-1,4.268962145e-1,1.690744047e0
1.014870808e1,1.418783307e0,4.984251559e-1,4.098314941e-1,1.558632594e0
1.015874008e1,1.219872355e0,3.810379505e-1,4.197900295e-1,1.345177368e0
1.016877308e1,9.900213480e-1,2.250869721e-1,4.129749835e-1,1.096063297e0
1.017880508e1,7.944325805e-1,1.197004765e-1,3.709741235e-1,8.849141932e-1
1.018883808e1,6.150097847e-1,1.407048255e-1,3.037098646e-1,7.001960904e-1
1.019887008e1,4.183047414e-1,2.048386186e-1,2.143442184e-1,5.127193777e-1
1.020890308e1,2.389222085e-1,2.686122656e-1,1.413986385e-1,3.863029199e-1
1.021893508e1,1.315665990e-1,3.621523976e-1,1.289429069e-1,4.063131826e-1
1.022896708e1,1.134286076e-1,4.444195628e-1,1.712464243e-1,4.895918041e-1
1.023900008e1,1.649414897e-1,4.760833085e-1,2.276397645e-1,5.528841416e-1
1.024903208e1,2.217509747e-1,4.874739349e-1,2.939881384e-1,6.109282752e-1
1.025906508e1,2.428832352e-1,5.314583778e-1,3.510032296e-1,6.816476660e-1
1.026909708e1,2.468561381e-1,5.656080842e-1,3.846898079e-1,7.272115965e-1
1.027912908e1,2.374404967e-1,5.700860023e-1,3.887821436e-1,7.297448833e-1
1.028916208e1,2.080588937e-1,5.427528620e-1,3.637159467e-1,6.856810208e-1
1.029919408e1,1.521142274e-1,4.645512998e-1,3.136378825e-1,5.807885757e-1
1.030922708e1,8.368111402e-2,3.606320918e-1,2.519532144e-1,4.478152037e-1
1.031925908e1,1.507785544e-2,3.237120807e-1,2.180782259e-1,3.906084555e-1
1.032929208e1,-2.235606872e-2,3.567424715e-1,2.355099469e-1,4.280536413e-1
1.033932321e1,1.339717396e-2,4.032127261e-1,2.603078485e-1,4.801251532e-1
1.034935521e1,6.220785528e-2,4.270091355e-1,2.732249796e-1,5.107430945e-1
1.035938821e1,7.794974744e-2,4.492073655e-1,2.749708295e-1,5.324212406e-1
1.036942021e1,5.941148475e-2,4.733489156e-1,2.920494080e-1,5.593583620e-1
1.037945321e1,4.233785346e-2,4.805100858e-1,3.107190132e-1,5.737845777e-1
1.038948521e1,6.668260694e-2,4.767025709e-1,2.894262373e-1,5.616577766e-1
1.039951821e1,1.209009066e-1,4.796369374e-1,2.344610840e-1,5.473943924e-1
1.040955021e1,1.857669801e-1,4.802595973e-1,1.902992129e-1,5.489739904e-1
1.041958221e1,2.163526267e-1,4.789263606e-1,1.435989738e-1,5.447931564e-1
1.042961521e1,2.267078012e-1,4.779402018e-1,1.065514684e-1,5.396077084e-1
1.043964721e1,2.431660444e-1,4.834955633e-1,8.976182342e-2,5.485935378e-1
1.044968021e1,2.810982466e-1,5.156971812e-1,1.112548709e-1,5.977770933e-1
1.045971221e1,3.527569473e-1,5.481622219e-1,1.586962491e-1,6.708977455e-1
1.046974421e1,4.201719463e-1,5.555266738e-1,2.019087076e-1,7.252044374e-1
1.047977721e1,4.219283462e-1,5.255683064e-1,2.551118135e-1,7.206438867e-1
1.048980921e1,3.571538925e-1,4.652325511e-1,3.027839959e-1,6.600593744e-1
1.049984221e1,2.763660550e-1,3.690563440e-1,3.493329585e-1,5.784585528e-1
1.050987421e1,1.951673627e-1,2.776840925e-1,3.742329776e-1,5.052218090e-1
1.051990721e1,9.089659154e-2,1.925772876e-1,3.328658938e-1,3.951555457e-1
1.052993921e1,-2.942609601e-2,1.169850528e-1,2.255426347e-1,2.557750531e-1
1.053997121e1,-1.385914832e-1,6.471290439e-2,1.167738736e-1,1.924356952e-1
1.055000421e1,-1.865249276e-1,3.364659846e-2,5.104253069e-2,1.962880082e-1
1.056003621e1,-1.480566263e-1,2.459797822e-2,5.789857358e-2,1.608666216e-1
1.057006921e1,-4.756757617e-2,4.784843698e-2,1.276126802e-1,1.443507651e-1
1.058010121e1,6.574032456e-2,8.598456532e-2,2.028584629e-1,2.299275793e-1
1.059013321e1,1.520139724e-1,1.105775237e-1,2.349586040e-1,3.009006184e-1
1.060016621e1,1.934380978e-1,1.250882149e-1,2.192944586e-1,3.180493968e-1
1.061019821e1,1.714880466e-1,1.365123838e-1,1.636133492e-1,2.735198514e-1
1.062023121e1,1.143585443e-1,1.355549693e-1,1.078486443e-1,2.075677153e-1
1.063026321e1,6.108067185e-2,1.126872078e-1,5.969337001e-2,1.413950271e-1
1.064029621e1,3.353509679e-2,8.991173655e-2,3.573177010e-2,1.023986449e-1
1.065032821e1,3.493858129e-2,8.780277520e-2,3.570194542e-2,1.010181207e-1
1.066036021e1,7.868543267e-2,9.789296240e-2,6.670777500e-2,1.422123646e-1
1.067039321e1,1.455065459e-1,1.155555770e-1,9.127383679e-2,2.070172929e-1
1.068042521e1,2.106939256e-1,1.207251921e-1,9.160269052e-2,2.595333412e-1
1.069045821e1,2.491294593e-1,1.202183887e-1,7.047050446e-2,2.854540952e-1
1.070049021e1,2.554991841e-1,1.246470734e-1,4.141442478e-2,2.872836240e-1
1.071052321e1,2.462015599e-1,1.251544207e-1,8.507872932e-3,2.763172471e-1
1.072055521e1,2.494474798e-1,1.073461175e-1,-2.065085247e-2,2.723484750e-1
1.073058721e1,2.570295334e-1,8.506903797e-2,-4.423953593e-2,2.743320229e-1
1.074062021e1,2.573483884e-1,5.944958702e-2,-5.347063392e-2,2.694838680e-1
1.075065221e1,2.393755466e-1,4.587864876e-2,-4.227443784e-2,2.473714430e-1
1.076068521e1,2.215106934e-1,3.755831718e-2,-1.815252192e-2,2.254043667e-1
1.077071721e1,2.245837152e-1,1.411903836e-2,-1.425206894e-3,2.250316058e-1
1.078074921e1,2.245234549e-1,-1.581374370e-2,2.842192538e-3,2.250976107e-1
1.079078221e1,2.371662706e-1,-5.075361952e-2,-7.066098042e-3,2.426390314e-1
1.080081421e1,2.434650064e-1,-6.389765441e-2,-3.599307686e-2,2.542707634e-1
1.081084721e1,2.534446716e-1,-7.279208302e-2,-6.845141202e-2,2.724306971e-1
1.082087921e1,2.872257531e-1,-7.852210104e-2,-8.800663054e-2,3.104988254e-1
1.083091221e1,3.551163971e-1,-8.190058172e-2,-8.666120470e-2,3.746004875e-1
1.084094421e1,4.259393811e-1,-8.248271048e-2,-6.787595153e-2,4.391297060e-1
1.085097621e1,4.577740133e-1,-6.276173890e-2,-4.560153931e-2,4.643011776e-1
1.086100921e1,4.385321438e-1,-2.272377163e-2,-3.891700506e-2,4.408416317e-1
1.087104121e1,1.117119640e-1,2.745391056e-2,-3.879024088e-2,1.214000119e-1
1.088107421e1,-6.119503826e-2,-2.623397671e-2,-5.575821921e-2,8.684488040e-2
1.089110621e1,-4.190363362e-2,-1.778136492e-1,-9.532080591e-2,2.060574298e-1
1.090113821e1,-3.625027463e-2,-3.265823424e-1,-1.322993338e-1,3.542219961e-1
1.091117121e1,-7.064952701e-2,-3.935014606e-1,-1.579852551e-1,4.298768381e-1
1.092120321e1,-1.000563055e-1,-4.054090977e-1,-1.637391150e-1,4.485290387e-1
1.093123621e1,-2.412639000e-2,-4.050689936e-1,-1.966246217e-1,4.509148635e-1
1.094126821e1,1.083368883e-1,-3.773229122e-1,-2.327987105e-1,4.564040984e-1
1.095130121e1,2.143240422e-1,-3.260067105e-1,-2.553666234e-1,4.662909850e-1
1.096133321e1,2.941077054e-1,-2.800443769e-1,-2.772529125e-1,4.917248955e-1
1.097136521e1,3.459565341e-1,-2.724964619e-1,-2.889987826e-1,5.267452341e-1