"Time (s)","Gyroscope x (rad/s)","Gyroscope y (rad/s)","Gyroscope z (rad/s)","Absolute (rad/s)"
1.340370833e-2,-8.996052742e-1,-4.838831723e-1,1.320106909e-2,1.021570772e0
2.343670833e-2,-1.438703775e0,-7.101809978e-1,3.966886923e-2,1.604929663e0
3.346870833e-2,-1.941583157e0,-1.052872062e0,2.588008344e-2,2.208835555e0
4.350170833e-2,-2.398565531e0,-1.563981891e0,4.893177655e-3,2.863421014e0
5.353470834e-2,-2.848700047e0,-2.245074034e0,5.613159761e-2,3.627478481e0
6.356770833e-2,-3.199217081e0,-2.348712921e0,2.629860938e-1,3.977512288e0
7.360070833e-2,-3.340071201e0,-1.549972296e0,5.589604974e-1,3.724369287e0
8.363370833e-2,-3.327241898e0,-2.092258632e-1,6.408227682e-1,3.394844316e0
9.366570833e-2,-3.369959116e0,-5.738479085e-4,5.861107707e-1,3.420548291e0
1.036987083e-1,-3.046821833e0,-7.077571750e-1,6.772969365e-1,3.200433508e0
1.137317083e-1,-2.110211134e0,-1.644413590e0,8.704272509e-1,2.813313115e0
1.237647083e-1,-1.114732504e0,-1.872201920e0,9.790077209e-1,2.388770542e0
1.337977083e-1,-5.431917906e-1,-1.396727800e0,9.264790416e-1,1.761893664e0
1.438307083e-1,-3.459811807e-1,-8.563522100e-1,7.967968583e-1,1.219806263e0
1.538627083e-1,-2.708123922e-1,-4.873356223e-1,7.574645877e-1,9.405253650e-1
1.638957083e-1,-1.468180269e-1,-4.865047634e-1,6.933764219e-1,8.596588162e-1
1.739287083e-1,1.260491926e-2,-7.357302904e-1,5.497625470e-1,9.185296959e-1
1.839617083e-1,1.812858135e-1,-8.340206742e-1,3.375189900e-1,9.178094028e-1
1.939947083e-1,3.897074759e-1,-5.568436384e-1,1.320832819e-1,6.923819378e-1
2.040277083e-1,6.154751778e-1,5.012044217e-3,-3.153144568e-2,6.163027236e-1
2.140597083e-1,8.058860898e-1,6.854025722e-1,-1.475275606e-1,1.068172953e0
2.240927083e-1,8.903943300e-1,1.254162192e0,-1.735050976e-1,1.547846532e0
2.341257083e-1,8.818280101e-1,1.479689002e0,-1.446745098e-1,1.728592172e0
2.441587083e-1,8.179227114e-1,1.417990923e0,-8.580403775e-2,1.639224863e0
2.541917083e-1,6.829459667e-1,1.324738741e0,5.836006254e-2,1.491560868e0
2.642247083e-1,4.795614481e-1,1.292185307e0,2.235759199e-1,1.396319534e0
2.742577083e-1,2.456727922e-1,1.217398167e0,3.797170520e-1,1.298691055e0
2.842897083e-1,-9.675695747e-2,4.991344810e-1,4.886620641e-1,7.051863241e-1
2.943227083e-1,-4.730826318e-1,-5.050500631e-1,4.895898998e-1,8.476915788e-1
3.043557083e-1,-7.705246210e-1,-1.052119613e0,5.364781022e-1,1.410132130e0
3.143887083e-1,-9.116926789e-1,-1.275813460e0,6.448479891e-1,1.695497701e0
3.244217083e-1,-8.154741526e-1,-1.406538963e0,7.187591195e-1,1.777628932e0
3.344547083e-1,-4.978767335e-1,-1.328431010e0,6.462236643e-1,1.558914756e0
3.444867083e-1,-9.785064310e-2,-1.334012985e0,5.092388988e-1,1.431254572e0
3.545197083e-1,2.381630540e-1,-1.298366070e0,3.583729565e-1,1.367811123e0
3.645527083e-1,4.914675057e-1,-1.186162233e0,1.639557928e-1,1.294373460e0
3.745857083e-1,6.793426275e-1,-8.926759958e-1,-9.216519073e-3,1.121811831e0
3.846187083e-1,8.308196664e-1,-5.230852962e-1,-1.451576054e-1,9.924466109e-1
3.946517083e-1,9.423086643e-1,-2.238146663e-1,-1.835420132e-1,9.857617837e-1
4.046837083e-1,9.365573525e-1,-1.168609634e-1,-1.229376271e-1,9.517929499e-1
4.147167083e-1,8.488748670e-1,-8.711584657e-2,-2.635196224e-2,8.537400871e-1
4.247497083e-1,7.256792784e-1,-1.137147918e-1,8.828730136e-2,7.398216789e-1
4.347827083e-1,5.191282630e-1,-1.585757434e-1,1.682327390e-1,5.682804539e-1
4.448157083e-1,2.163790911e-1,-2.102419436e-1,2.173820734e-1,3.718555523e-1
4.548487083e-1,-1.729143262e-1,-2.398557663e-1,2.199115455e-1,3.684986305e-1
4.648807083e-1,-5.522047281e-1,-4.232699051e-2,2.047718763e-1,5.904685912e-1
4.749137083e-1,-8.790579438e-1,4.129606187e-1,2.004676759e-1,9.916988607e-1
4.849467083e-1,-1.121405721e0,9.417517185e-1,1.563294232e-1,1.472713814e0
4.949797083e-1,-1.220932841e0,1.468765736e0,7.893557847e-2,1.911591121e0
5.050127083e-1,-1.127389669e0,1.982917786e0,2.396600321e-2,2.281127962e0
5.150457083e-1,-9.399936795e-1,2.040991545e0,-3.983606119e-3,2.247053732e0
5.250777083e-1,-7.096915245e-1,1.394475222e0,-1.339601129e-1,1.570403934e0
5.351107083e-1,-4.305490851e-1,8.051355481e-1,-3.387148678e-1,9.738293111e-1
5.451437083e-1,-2.134535313e-1,3.834148347e-1,-4.974859953e-1,6.633714352e-1
5.551767083e-1,-4.066816345e-2,2.806543708e-1,-4.958150983e-1,5.711859479e-1
5.652097083e-1,7.935012132e-2,3.184981644e-1,-3.782898188e-1,5.008400039e-1
5.752427083e-1,2.033274472e-1,4.494758844e-1,-2.526909113e-1,5.542772935e-1
5.852747083e-1,3.690042198e-1,4.975784719e-1,-1.421810687e-1,6.355815496e-1
5.953077083e-1,5.430726409e-1,4.025547504e-1,-3.828250105e-3,6.760124821e-1
6.053407083e-1,6.471588612e-1,1.213492826e-1,1.365361810e-1,6.724450674e-1
6.153737083e-1,5.961366892e-1,-4.057310522e-1,2.140610665e-1,7.522092655e-1
6.254067083e-1,4.025983512e-1,-7.238811255e-1,3.028970361e-1,8.819500727e-1
6.354397083e-1,8.722095191e-2,-7.391234636e-1,3.640797138e-1,8.285318503e-1
6.454727083e-1,-3.130657971e-1,-6.920857430e-1,3.236266375e-1,8.256676507e-1
6.555047083e-1,-7.109149098e-1,-5.922830105e-1,1.982021481e-1,9.462997755e-1
6.655377083e-1,-1.045316458e0,-4.647073448e-1,6.734316796e-2,1.145938269e0
6.755707083e-1,-1.320991635e0,-5.341575146e-1,-1.151702181e-2,1.424947646e0
6.856037083e-1,-1.545241952e0,-7.273862958e-1,-5.318587646e-3,1.707891039e0
6.956367083e-1,-1.748641968e0,-8.367069364e-1,7.718560845e-2,1.940047640e0
7.056697083e-1,-1.980187416e0,-8.431721926e-1,1.324363202e-1,2.156297968e0
7.157017083e-1,-2.211127758e0,-6.292601824e-1,1.254087687e-1,2.302342654e0
7.257347083e-1,-2.408636093e0,-3.361544609e-1,1.156250089e-1,2.434727252e0
7.357677083e-1,-2.472950935e0,-1.489808559e-1,1.277999133e-1,2.480728611e0
7.458007083e-1,-2.360380173e0,-1.247958094e-1,1.597289741e-1,2.369067728e0
7.558337083e-1,-2.106894016e0,-2.855799198e-1,1.868372858e-1,2.134353874e0
7.658667083e-1,-1.761966825e0,-3.735219836e-1,2.255593687e-1,1.815192219e0
7.758987083e-1,-1.367866397e0,-2.225417793e-1,2.572799921e-1,1.409530531e0
7.859317083e-1,-1.007108212e0,9.763669223e-2,3.179745078e-1,1.060616642e0
7.959647083e-1,-6.775156260e-1,3.560605347e-1,3.759374022e-1,8.527223805e-1
8.059977083e-1,-3.890112638e-1,5.166334510e-1,4.229384065e-1,7.727333186e-1
8.160307083e-1,-6.983116269e-2,5.070719123e-1,5.397846103e-1,7.438855698e-1
8.260637083e-1,3.041626215e-1,3.812507987e-1,5.968375802e-1,7.707672599e-1
8.360957083e-1,7.139945626e-1,1.602537036e-1,4.212058783e-1,8.443245092e-1
8.461287083e-1,1.107963324e0,-7.255379856e-2,2.129391208e-2,1.110540504e0
8.561617083e-1,1.450315833e0,-6.788447499e-2,-3.946982324e-1,1.504596628e0
8.661947083e-1,1.665544987e0,2.478272319e-1,-7.427572012e-1,1.840420251e0
8.762277083e-1,1.731011152e0,6.755644679e-1,-8.824223876e-1,2.057050371e0
8.862607083e-1,1.672640324e0,1.014027715e0,-8.432080150e-1,2.130018219e0
8.962927083e-1,1.492372870e0,9.836686850e-1,-5.861812830e-1,1.881060702e0
9.063257083e-1,1.185517430e0,5.612769723e-1,-2.473110408e-1,1.334783191e0
9.163587083e-1,8.248022199e-1,-5.843902007e-2,2.809853060e-3,8.268746678e-1
9.263917083e-1,4.678568542e-1,-4.741905332e-1,1.291207969e-1,6.785417290e-1
9.364247083e-1,1.492970139e-1,-4.698754251e-1,1.509744376e-1,5.156217550e-1
9.464577083e-1,-1.154765114e-1,-2.663570940e-1,9.194498509e-2,3.045239014e-1
9.564897083e-1,-3.380168974e-1,-8.514814079e-2,-3.453438869e-3,3.485936819e-1
9.665227083e-1,-5.281622410e-1,-9.526021034e-2,-8.154909313e-2,5.428444667e-1
9.765563333e-1,-7.354144454e-1,-3.734859824e-1,-7.296785712e-2,8.280401523e-1
9.865893333e-1,-9.631873965e-1,-7.859203219e-1,-4.110341426e-3,1.243148265e0
9.966223333e-1,-1.188000798e0,-1.139051795e0,4.957552254e-2,1.646585139e0
1.006655333e0,-1.397226453e0,-1.185904980e0,1.292795241e-1,1.837205916e0
1.016687333e0,-1.568808675e0,-9.491043091e-1,1.000593305e-1,1.836292874e0
1.026720333e0,-1.636746049e0,-5.299809575e-1,-1.437615603e-1,1.726408072e0
1.036753333e0,-1.595761299e0,-2.809543908e-2,-4.159651101e-1,1.649324240e0
1.046786333e0,-1.459094286e0,4.248445332e-1,-5.404732823e-1,1.612935331e0
1.056819333e0,-1.271525383e0,7.112832069e-1,-4.745875001e-1,1.532296934e0
1.066852333e0,-1.049104810e0,8.128939271e-1,-3.100061417e-1,1.362909112e0
1.076884333e0,-8.136009574e-1,8.537585139e-1,-1.505451202e-1,1.188912928e0
1.086917333e0,-5.849987864e-1,9.422951937e-1,-4.158938304e-2,1.109897963e0
1.096950333e0,-3.685404956e-1,1.098372698e0,9.634124115e-3,1.158592895e0
1.106983333e0,-1.509341002e-1,1.214486241e0,2.824566560e-3,1.223832469e0
1.117016333e0,7.445056736e-2,1.221204162e0,-8.588409983e-3,1.223501636e0
1.127049333e0,2.753649652e-1,1.155664206e0,2.440559864e-2,1.188268174e0
1.137081333e0,4.451526701e-1,1.019142032e0,7.364398986e-2,1.114555884e0
1.147114333e0,5.841490626e-1,9.269108772e-1,9.879426658e-2,1.100070093e0
1.157147333e0,6.693542004e-1,8.884438872e-1,1.045197994e-1,1.117269876e0
1.167180333e0,6.967816353e-1,8.612889051e-1,8.260708302e-2,1.110921759e0
1.177213333e0,6.729138494e-1,8.012247682e-1,2.691612020e-2,1.046660716e0
1.187246333e0,6.003751159e-1,7.149918675e-1,-1.080293208e-2,9.336917873e-1
1.197278333e0,4.833483696e-1,5.835390091e-1,-1.188843604e-2,7.578157800e-1
1.207311333e0,3.315814734e-1,3.942565322e-1,1.746938564e-3,5.151577801e-1
1.217344333e0,1.819919497e-1,1.028819233e-1,-4.731354862e-2,2.143462894e-1
1.227377333e0,4.919035360e-2,-1.840824336e-1,-8.132686466e-2,2.071716490e-1
1.237410333e0,-5.630784482e-2,-3.062192500e-1,1.204063557e-2,3.115859100e-1
1.247442333e0,-1.430311948e-1,-3.277893662e-1,2.306678444e-1,4.255719043e-1
1.257475333e0,-2.355358303e-1,-4.098789096e-1,5.031449199e-1,6.903858763e-1
1.267508333e0,-3.272959292e-1,-5.793781877e-1,6.893857121e-1,9.581515380e-1
1.277541333e0,-3.760397732e-1,-7.105439305e-1,7.050057054e-1,1.069257515e0
1.287574333e0,-3.629868031e-1,-7.296668887e-1,5.441340804e-1,9.799260611e-1
1.297607333e0,-3.142272532e-1,-6.268070340e-1,3.011092246e-1,7.630809850e-1
1.307640333e0,-2.660236657e-1,-4.424670935e-1,1.209484190e-1,5.302586534e-1
1.317672333e0,-2.305258662e-1,-2.861685455e-1,7.155210525e-2,3.743718942e-1
1.327705333e0,-2.316878289e-1,-1.993710548e-1,1.470540315e-1,3.391945691e-1
1.337738333e0,-2.597703338e-1,-1.929352582e-1,2.608240247e-1,4.156125744e-1
1.347771333e0,-2.893444300e-1,-2.070298344e-1,3.424983621e-1,4.938488428e-1
1.357804333e0,-2.877404094e-1,-2.727936804e-1,3.509099782e-1,5.294796956e-1
1.367836333e0,-2.245754600e-1,-2.629515231e-1,2.556024194e-1,4.300119039e-1
1.377869333e0,-5.242287740e-2,-1.866336018e-1,9.161480516e-2,2.144143930e-1
1.387902333e0,1.891423911e-1,-6.870795786e-2,-8.114215732e-2,2.169785180e-1
1.397935333e0,4.408547878e-1,-9.242340922e-2,-2.394894660e-1,5.101472678e-1
1.407968333e0,6.723066568e-1,-1.442382932e-1,-3.307691514e-1,7.630263151e-1
1.418001333e0,8.419463038e-1,-2.423353046e-1,-3.013830483e-1,9.265159039e-1
1.428033333e0,9.375055432e-1,-3.871400356e-1,-2.231491059e-1,1.038551671e0
1.438066333e0,9.194061756e-1,-4.668215513e-1,-1.677348465e-1,1.044684189e0
1.448099333e0,8.119868636e-1,-4.061412513e-1,-1.537936926e-1,9.208289106e-1
1.458132333e0,6.669439077e-1,-2.172552496e-1,-1.497129351e-1,7.172363505e-1
1.468165333e0,5.470128059e-1,1.102162078e-1,-1.243518665e-1,5.716939820e-1
1.478198333e0,4.807381928e-1,3.137125969e-1,-9.473378211e-2,5.818069207e-1
1.488230333e0,4.613574147e-1,2.423554808e-1,-4.430065304e-2,5.230194939e-1
1.498263333e0,4.454354346e-1,1.348292977e-1,2.595034242e-2,4.661170305e-1
1.508296333e0,3.830302060e-1,-5.708805285e-3,1.032710075e-1,3.967488250e-1
1.518329333e0,2.790332437e-1,-1.271236539e-1,1.635284871e-1,3.475076122e-1
1.528362333e0,1.541236490e-1,-1.891588122e-1,1.490322948e-1,2.859121898e-1
1.538395333e0,6.388508715e-3,-1.909138411e-1,7.330237329e-2,2.046024089e-1
1.548427333e0,-1.662832052e-1,-1.971149147e-1,4.240189679e-3,2.579193151e-1
1.558460333e0,-3.506951034e-1,-2.107268572e-1,-1.813755371e-2,4.095385632e-1
1.568493333e0,-5.105006695e-1,-2.471775711e-1,-1.663747244e-2,5.674367724e-1
1.578526333e0,-6.050673723e-1,-3.430026174e-1,-2.142237499e-2,6.958564785e-1
1.588559333e0,-6.156167388e-1,-3.941684067e-1,-1.661818847e-2,7.311831960e-1
1.598592333e0,-5.747087598e-1,-2.977992594e-1,-8.885700256e-3,6.473434275e-1
1.608624333e0,-5.043284297e-1,-1.121961996e-1,-2.649173141e-3,5.166644659e-1
1.618657333e0,-4.426016808e-1,6.008156016e-2,1.303791068e-2,4.468512379e-1
1.628690333e0,-4.010401070e-1,1.942670494e-1,1.388053410e-2,4.458312721e-1
1.638723333e0,-3.837378323e-1,2.503684163e-1,-5.746429320e-3,4.582271154e-1
1.648756333e0,-3.597822189e-1,1.863408387e-1,-8.956383914e-3,4.052732042e-1
1.658789333e0,-3.256141543e-1,-6.210227497e-3,7.502750959e-3,3.257597822e-1
1.668821333e0,-2.708985507e-1,-1.524152458e-1,4.718726128e-2,3.143931767e-1
1.678854333e0,-2.280221730e-1,-1.773722619e-1,8.760792017e-2,3.018777540e-1
1.688887333e0,-2.117498517e-1,-1.133776531e-1,1.012954414e-1,2.606784578e-1
1.698920333e0,-2.251788527e-1,-7.498624735e-3,8.580169827e-2,2.410885242e-1
1.708953333e0,-2.755293846e-1,7.306988537e-2,6.096119434e-2,2.914994291e-1
1.718985333e0,-3.679770231e-1,4.023124650e-2,2.647432685e-2,3.711152553e-1
1.729018333e0,-5.167978406e-1,-1.005056202e-1,-1.582848653e-2,5.267180733e-1
1.739051333e0,-7.180840969e-1,-3.056752980e-1,-4.978432134e-2,7.820234246e-1
1.749084333e0,-9.652472138e-1,-4.901889265e-1,-9.493243694e-2,1.086738025e0
1.759117333e0,-1.240452647e0,-5.724065900e-1,-1.501392275e-1,1.374377627e0
1.769150333e0,-1.510807991e0,-5.604087710e-1,-1.850357205e-1,1.621985510e0
1.779182333e0,-1.751385927e0,-4.380375743e-1,-1.856005788e-1,1.814849073e0
1.789215333e0,-1.940229416e0,-3.357123733e-1,-1.383383870e-1,1.973912484e0
1.799248333e0,-2.061768532e0,-3.420003653e-1,-1.728041098e-2,2.090012522e0
1.809281333e0,-2.100259066e0,-4.407997131e-1,1.572894752e-1,2.151774270e0
1.819314333e0,-2.067522764e0,-6.450439095e-1,3.495137691e-1,2.193830417e0
1.829347333e0,-2.007905483e0,-9.195045829e-1,5.178548694e-1,2.268335684e0
1.839379333e0,-1.936313629e0,-1.114313483e0,6.221600175e-1,2.319070524e0
1.849412333e0,-1.840294480e0,-1.134929061e0,6.566741467e-1,2.259639060e0
1.859445333e0,-1.732035875e0,-9.519605637e-1,6.394887567e-1,2.077287428e0
1.869478333e0,-1.618314743e0,-6.414975524e-1,5.760557652e-1,1.833658082e0
1.879511333e0,-1.520638466e0,-2.842075825e-1,4.810083508e-1,1.620026027e0
1.889544333e0,-1.457144499e0,7.243367843e-3,3.869122565e-1,1.507655017e0
1.899576333e0,-1.476786613e0,5.787698179e-2,3.407168090e-1,1.516685989e0
1.909609333e0,-1.561425209e0,-1.418293566e-1,3.364304900e-1,1.603542866e0
1.919642333e0,-1.676005602e0,-2.989633083e-1,3.497316241e-1,1.738012096e0
1.929675333e0,-1.772053719e0,-1.943213642e-1,3.338307440e-1,1.813664285e0
1.939708333e0,-1.797310352e0,2.214217782e-1,2.708925009e-1,1.831047474e0
1.949740333e0,-1.716694117e0,8.430365324e-1,1.860280633e-1,1.921550344e0
1.959773333e0,-1.543979049e0,1.412185550e0,1.326804161e-1,2.096602829e0
1.969806333e0,-1.315797448e0,1.793520093e0,1.166035086e-1,2.227472475e0
1.979839083e0,-1.082115769e0,1.853924870e0,9.354905784e-2,2.148665490e0
1.989872083e0,-8.354144692e-1,1.631696939e0,3.055668063e-2,1.833381016e0
1.999905083e0,-5.377798676e-1,1.369412541e0,-8.649910241e-2,1.473763885e0
2.009937083e0,-1.429169327e-1,1.307916284e0,-2.041275501e-1,1.331442192e0
2.019970083e0,3.851527572e-1,1.471934438e0,-3.290780187e-1,1.556671442e0
2.030003083e0,1.039090276e0,1.717605591e0,-4.515520632e-1,2.057614355e0
2.040036083e0,1.762141466e0,1.758772969e0,-5.446297526e-1,2.548538105e0
2.050069083e0,2.452311516e0,1.503299117e0,-5.771816373e-1,2.933748225e0
2.060102083e0,3.030964136e0,1.040637016e0,-5.535162687e-1,3.252083833e0
2.070134083e0,3.435002089e0,5.456891656e-1,-5.172228217e-1,3.516324141e0
2.080167083e0,3.698076248e0,2.940638736e-2,-5.007684827e-1,3.731943428e0
2.090200083e0,3.921400547e0,-3.938869536e-1,-4.389436841e-1,3.965501323e0
2.100233083e0,4.180370808e0,-4.548139274e-1,-3.088647723e-1,4.216367304e0
2.110266083e0,4.562757969e0,-1.690723747e-1,-1.288111508e-1,4.567705996e0
2.120299083e0,5.107737064e0,2.026039660e-1,7.026439905e-2,5.112236631e0
2.130331083e0,5.824255943e0,3.201494813e-1,2.939013839e-1,5.840447843e0
2.140364083e0,6.715531826e0,2.092256211e-2,5.529465675e-1,6.738290241e0
2.150397083e0,7.762071133e0,-7.678200603e-1,7.475915551e-1,7.835699653e0
2.160430083e0,8.972292900e0,-1.875511646e0,8.717270494e-1,9.207577959e0
2.170463083e0,1.035839462e1,-3.015126944e0,9.504384995e-1,1.083008139e1
2.180495083e0,1.192302513e1,-3.826164961e0,9.842656851e-1,1.256052728e1
2.190528083e0,1.352235508e1,-3.923469305e0,9.285465479e-1,1.411063064e1
2.200561083e0,1.493153763e1,-4.253497124e0,6.148278117e-1,1.553773043e1
2.210594083e0,1.622213745e1,-5.126328945e0,9.957315028e-2,1.701313924e1
2.220627083e0,1.728914452e1,-5.347207069e0,-5.007954836e-1,1.810408621e1
2.230660083e0,1.759577560e1,-4.507247925e0,-1.031371355e0,1.819313964e1
2.240692083e0,1.752458763e1,-4.687029839e0,-1.462354183e0,1.819939285e1
2.250725083e0,1.743368721e1,-4.960268497e0,-1.912202477e0,1.822619630e1
2.260758083e0,1.733024216e1,-5.308192730e0,-2.391010523e0,1.828198935e1
2.270791083e0,1.719558144e1,-5.733181953e0,-2.907750607e0,1.835789775e1
2.280824083e0,1.701956177e1,-6.235601425e0,-3.462284803e0,1.845360734e1
2.290857083e0,1.678649330e1,-6.815120220e0,-4.065330982e0,1.856769067e1
2.300889083e0,1.648268890e1,-7.476790428e0,-4.719983101e0,1.870453606e1
2.310922083e0,1.607749176e1,-8.226423264e0,-5.428901196e0,1.885822763e1
2.320955083e0,1.555669880e1,-9.048874855e0,-6.191715717e0,1.903235028e1
2.330988083e0,1.491012764e1,-9.950081825e0,-7.001153469e0,1.924401685e1
2.341021083e0,1.411579895e1,-1.092229366e1,-7.855065346e0,1.950011104e1
2.351053083e0,1.315309620e1,-1.194551086e1,-8.737710953e0,1.980017076e1
2.361086083e0,1.198897648e1,-1.300018120e1,-9.630818367e0,2.013685503e1
2.371119083e0,1.060696411e1,-1.404736710e1,-1.050634575e1,2.049925635e1
2.381152083e0,8.998654366e0,-1.503767204e1,-1.133268356e1,2.086952509e1
2.391185083e0,7.164342403e0,-1.592683983e1,-1.206624222e1,2.122701652e1
2.401218083e0,5.127195358e0,-1.664362717e1,-1.265876102e1,2.153004153e1
2.411250083e0,2.926950455e0,-1.713359642e1,-1.307788944e1,2.175220351e1
2.421283083e0,6.227239966e-1,-1.735447121e1,-1.328190231e1,2.186262530e1
2.431316083e0,-1.704118609e0,-1.727851486e1,-1.325637245e1,2.184450747e1
2.441349083e0,-3.973137856e0,-1.691049767e1,-1.300337505e1,2.169881376e1
2.451382083e0,-6.118882656e0,-1.628752518e1,-1.254783821e1,2.145163036e1
2.461415083e0,-8.084324837e0,-1.544377899e1,-1.191905880e1,2.111706846e1
2.471447083e0,-9.829693794e0,-1.444609833e1,-1.116731262e1,2.073695996e1
2.481480083e0,-1.134018326e1,-1.334662056e1,-1.032763863e1,2.033204752e1
2.491513083e0,-1.261350155e1,-1.220456028e1,-9.453118324e0,1.993522408e1
2.501546083e0,-1.367250347e1,-1.106365204e1,-8.575155258e0,1.956719283e1
2.511579083e0,-1.453229141e1,-9.960263252e0,-7.714888573e0,1.923314440e1
2.521611083e0,-1.522160816e1,-8.916031837e0,-6.897304535e0,1.894111371e1
2.531644083e0,-1.576832390e1,-7.943319798e0,-6.130065918e0,1.868994586e1
2.541677083e0,-1.619891930e1,-7.051869392e0,-5.421514511e0,1.848044014e1
2.551710083e0,-1.653362083e1,-6.245696068e0,-4.773098946e0,1.830715190e1
2.561743083e0,-1.679917908e1,-5.527904034e0,-4.184744835e0,1.817366859e1
2.571776083e0,-1.699663925e1,-4.884754658e0,-3.654387951e0,1.805827027e1
2.581808083e0,-1.714743996e1,-4.323950768e0,-3.171418905e0,1.796633366e1
2.591841083e0,-1.726330948e1,-3.826337814e0,-2.739673615e0,1.789325367e1
2.601874083e0,-1.735002518e1,-3.393966913e0,-2.352144957e0,1.783465646e1
2.611907083e0,-1.741319466e1,-3.023920536e0,-2.000527620e0,1.778666788e1
2.621940083e0,-1.745106316e1,-2.707844734e0,-1.682100296e0,1.773982778e1
2.631973083e0,-1.748171043e1,-2.437998772e0,-1.389874578e0,1.770552990e1
2.642005083e0,-1.750177574e1,-2.217979670e0,-1.127662897e0,1.767776037e1
2.652038083e0,-1.750951385e1,-2.036902189e0,-8.808473945e-1,1.764958748e1
2.662071083e0,-1.751581764e1,-1.898061037e0,-6.499875784e-1,1.763034280e1
2.672104083e0,-1.751861572e1,-1.797727585e0,-4.252005517e-1,1.761574627e1
2.682137083e0,-1.751936150e1,-1.735913277e0,-2.180558741e-1,1.760650364e1
2.692169083e0,-1.751685333e1,-1.711866498e0,-8.921456523e-3,1.760030446e1
2.702202083e0,-1.751000214e1,-1.726772785e0,1.976421028e-1,1.759605017e1
2.712235083e0,-1.749683762e1,-1.772732377e0,4.086534083e-1,1.759115983e1
2.722268083e0,-1.747581100e1,-1.853935003e0,6.266139746e-1,1.758504166e1
2.732301083e0,-1.745529175e1,-1.968561888e0,8.507235646e-1,1.758653395e1
2.742334083e0,-1.742290878e1,-2.116766453e0,1.088431001e0,1.758474147e1
2.752366083e0,-1.737651253e1,-2.307286739e0,1.343953133e0,1.758047126e1
2.762399083e0,-1.731822205e1,-2.536365032e0,1.619224072e0,1.757770887e1
2.772432083e0,-1.724908066e1,-2.811463833e0,1.920143127e0,1.758186742e1
2.782465083e0,-1.716402054e1,-3.132914782e0,2.248404264e0,1.759187534e1
2.792498083e0,-1.706208420e1,-3.504217148e0,2.608407736e0,1.761244009e1
2.802531083e0,-1.693829536e1,-3.936698437e0,3.009170532e0,1.764818834e1
2.812563083e0,-1.678051186e1,-4.425652981e0,3.444381475e0,1.769281623e1
2.822596083e0,-1.659152031e1,-4.989078999e0,3.927516222e0,1.776498914e1
2.832629083e0,-1.635700989e1,-5.625197411e0,4.464181423e0,1.786402906e1
2.842662083e0,-1.606320953e1,-6.332169056e0,5.053404808e0,1.799055212e1
2.852695083e0,-1.569769573e1,-7.117453098e0,5.694841385e0,1.815232790e1
2.862727083e0,-1.523959923e1,-7.975859642e0,6.393083572e0,1.835023812e1
2.872760083e0,-1.467314816e1,-8.900034904e0,7.142519474e0,1.858836955e1
2.882793083e0,-1.396861649e1,-9.871922493e0,7.935636520e0,1.885607136e1
2.892826083e0,-1.311013317e1,-1.087661839e1,8.758695602e0,1.915440336e1
2.902859083e0,-1.206798363e1,-1.187863255e1,9.591315269e0,1.946102435e1
2.912892083e0,-1.081805706e1,-1.285896778e1,1.040912533e1,1.976697501e1
2.922924083e0,-9.354698181e0,-1.378148842e1,1.117739296e1,2.005926007e1
2.932957083e0,-7.697388649e0,-1.461515617e1,1.186008072e1,2.033504602e1
2.942990083e0,-5.853625774e0,-1.532893848e1,1.242463493e1,2.058185713e1
2.953023083e0,-3.856797934e0,-1.588455772e1,1.283324909e1,2.078187544e1
2.963056083e0,-1.759997249e0,-1.625729179e1,1.306252861e1,2.092908934e1
2.973087583e0,3.801828325e-1,-1.641630173e1,1.309030437e1,2.099989452e1
2.983120583e0,2.494177341e0,-1.635827637e1,1.291529942e1,2.099092864e1
2.993153583e0,4.517706394e0,-1.606012535e1,1.254980946e1,2.087666196e1
3.003186583e0,6.388224125e0,-1.554870415e1,1.201389599e1,2.066168689e1
3.013219583e0,8.076287270e0,-1.484574604e1,1.135036182e1,2.035812627e1
3.023252583e0,9.565617561e0,-1.398290825e1,1.058907318e1,1.997876956e1
3.033284583e0,1.086428165e1,-1.302112389e1,9.772986412e0,1.957277565e1
3.043317583e0,1.196293736e1,-1.199167252e1,8.937321663e0,1.915170484e1
3.053350583e0,1.288895607e1,-1.095298862e1,8.112224579e0,1.875903345e1
3.063383583e0,1.366628456e1,-9.965899467e0,7.311519623e0,1.842674158e1
3.073416583e0,1.431504440e1,-9.074269295e0,6.549643040e0,1.817032425e1
3.083448583e0,1.485822964e1,-8.306307793e0,5.834585190e0,1.799455811e1
3.093481583e0,1.530482864e1,-7.664049149e0,5.160455704e0,1.787752030e1
3.103514583e0,1.567810059e1,-7.144256115e0,4.527169228e0,1.781399715e1
3.113547583e0,1.599520493e1,-6.724118233e0,3.926471710e0,1.778981525e1
3.123580583e0,1.625916672e1,-6.398891926e0,3.348679304e0,1.779100822e1
3.133613583e0,1.647332764e1,-6.159628391e0,2.782124519e0,1.780594738e1
3.143645583e0,1.664699936e1,-5.955749035e0,2.223762751e0,1.781961433e1
3.153678583e0,1.674868774e1,-5.769757271e0,1.688806415e0,1.779496297e1
3.163711583e0,1.678081322e1,-5.607141495e0,1.171359062e0,1.773154844e1
3.173744583e0,1.676288414e1,-5.480160236e0,6.681261659e-1,1.764859296e1
3.183777583e0,1.669539070e1,-5.411468983e0,1.686785370e-1,1.755131105e1
3.193809583e0,1.658315086e1,-5.396657467e0,-3.205669224e-1,1.744212050e1
3.203842583e0,1.645865440e1,-5.457502842e0,-8.096090555e-1,1.735877613e1
3.213875583e0,1.632215691e1,-5.595347881e0,-1.301349163e0,1.730359019e1
3.223908583e0,1.617392921e1,-5.809847832e0,-1.800402641e0,1.727980809e1
3.233941583e0,1.601734161e1,-6.105590820e0,-2.324357271e0,1.729844237e1
3.243974583e0,1.585810566e1,-6.479976654e0,-2.876131773e0,1.737071520e1
3.254006583e0,1.567500210e1,-6.928754330e0,-3.387252092e0,1.746959656e1
3.264039583e0,8.468042374e0,-8.436079979e0,1.980891705e0,1.211606863e1
3.274072583e0,2.451598358e1,1.163277340e1,9.143231511e-1,2.715125881e1
3.284105583e0,3.542154312e1,7.412431717e0,2.171506643e0,3.625390051e1
3.294138583e0,2.324833870e1,-4.169127941e0,-7.023821473e-1,2.362964707e1
3.304170583e0,2.014463997e1,3.971630335e0,-2.297591925e0,2.066057346e1
3.314203583e0,1.644999886e1,1.967800379e0,1.428910613e0,1.662878487e1
3.324236583e0,1.281930351e1,6.962472200e-1,3.239926338e0,1.324071091e1
3.334269583e0,1.173780632e1,1.434724450e0,4.714570045e0,1.273034572e1
3.344302583e0,1.149331284e1,2.215485334e0,5.179424763e0,1.279965062e1
3.354335583e0,1.127538490e1,2.719868183e0,5.548509598e0,1.285760267e1
3.364367583e0,1.109401989e1,3.271802664e0,5.771215439e0,1.292628708e1
3.374400583e0,1.086341286e1,3.871384382e0,6.010928154e0,1.300509951e1
3.384433583e0,1.057830048e1,4.489049435e0,6.275174618e0,1.309312118e1
3.394466583e0,1.024439144e1,5.114716530e0,6.570693970e0,1.320158704e1
3.404499583e0,9.849087715e0,5.756277084e0,6.892463684e0,1.332836488e1
3.414532583e0,9.394362450e0,6.401910782e0,7.229858875e0,1.347254122e1
3.424564583e0,8.878282547e0,7.038226128e0,7.587870121e0,1.363584618e1
3.434597583e0,8.284808159e0,7.672224522e0,7.950508118e0,1.380983905e1
3.444630583e0,7.617475510e0,8.283043861e0,8.316657066e0,1.399291012e1
3.454663583e0,6.865640163e0,8.864346504e0,8.666083336e0,1.417090873e1
3.464696583e0,6.041862965e0,9.408288956e0,9.000887871e0,1.435395387e1
3.474728583e0,5.140438557e0,9.884494781e0,9.302863121e0,1.451449647e1
3.484761583e0,4.170913219e0,1.029453659e1,9.566103935e0,1.465893397e1
3.494794583e0,3.148398638e0,1.062075710e1,9.776885986e0,1.477499222e1
3.504827583e0,2.079761505e0,1.085478401e1,9.927161217e0,1.485598444e1
3.514860583e0,9.827378392e-1,1.099009323e1,1.001229191e1,1.489946013e1
3.524893583e0,-1.256492585e-1,1.101996613e1,1.002531910e1,1.489840475e1
3.534925583e0,-1.229515672e0,1.094818592e1,9.970077515e0,1.485856418e1
3.544958583e0,-2.313644171e0,1.076865196e1,9.852010727e0,1.477764967e1
3.554991583e0,-3.357172966e0,1.050101662e1,9.666806221e0,1.466250670e1
3.565024583e0,-4.346281052e0,1.014267254e1,9.429835320e0,1.451501841e1
3.575057583e0,-5.269882202e0,9.708168030e0,9.151455879e0,1.434466206e1
3.585089583e0,-6.119969845e0,9.217966080e0,8.836219788e0,1.415993325e1
3.595122583e0,-6.899531364e0,8.680242538e0,8.502648354e0,1.397301587e1
3.605155583e0,-7.594143867e0,8.105158806e0,8.155183792e0,1.377939197e1
3.615188583e0,-8.209664345e0,7.509231567e0,7.804214478e0,1.359017700e1
3.625221583e0,-8.749827385e0,6.892904282e0,7.458896160e0,1.340547428e1
3.635253583e0,-9.219591141e0,6.274046898e0,7.127223015e0,1.323487186e1
3.645286583e0,-9.627337456e0,5.652626991e0,6.812994957e0,1.307878888e1
3.655319583e0,-9.969706535e0,5.037161350e0,6.524973392e0,1.293612464e1
3.665352583e0,-1.026003361e1,4.429004192e0,6.262460709e0,1.281026080e1
3.675385583e0,-1.049576569e1,3.827026606e0,6.029422760e0,1.269492689e1
3.685418583e0,-1.069050026e1,3.235883474e0,5.831046104e0,1.259995382e1
3.695450583e0,-1.084437370e1,2.655798912e0,5.665132999e0,1.251988182e1
3.705483583e0,-1.096440220e1,2.079313278e0,5.534728527e0,1.245692093e1
3.715516583e0,-1.104725075e1,1.509322405e0,5.439765930e0,1.240608144e1
3.725549583e0,-1.071119595e1,4.526631832e-1,5.467510700e0,1.203446284e1
3.735582583e0,-8.565324783e0,-2.678218365e0,5.098243713e0,1.032132410e1
3.745614583e0,-7.822431087e0,-2.443740368e0,4.391188145e0,9.297571104e0
3.755647583e0,-7.767907143e0,-5.327981897e-3,5.422297478e0,9.473210633e0
3.765680583e0,-7.798767567e0,2.912778378e0,7.533354759e0,1.122748803e1
3.775713583e0,-6.869009495e0,5.024254799e0,8.040848732e0,1.170818842e1
3.785746583e0,-5.465009212e0,6.034376621e0,8.762858391e0,1.196109168e1
3.795779583e0,-4.474820137e0,6.032751083e0,9.418394089e0,1.204675260e1
3.805811583e0,-4.468272686e0,5.741445065e0,9.669421196e0,1.210071727e1
3.815844583e0,-5.550146580e0,5.681096077e0,9.943475723e0,1.272602409e1
3.825877583e0,-6.835492134e0,5.318645000e0,1.016552830e1,1.335477079e1
3.835910583e0,-7.879195690e0,4.882071972e0,1.047316933e1,1.398583666e1
3.845943583e0,-8.782355309e0,4.525476456e0,1.062914944e1,1.451166840e1
3.855975583e0,-9.322698593e0,3.816832304e0,1.069707108e1,1.469381664e1
3.866008583e0,-9.616494179e0,3.039043665e0,1.066485405e1,1.467827846e1
3.876041583e0,-8.429958344e0,5.715531707e-1,8.907742500e0,1.227757090e1
3.886074583e0,-7.989768028e0,-4.890272915e-1,5.683488846e0,9.817208682e0
3.896107583e0,-8.180121422e0,-2.623589337e-1,3.675959826e0,8.971950698e0
3.906139583e0,-7.154781818e0,-1.252384901e0,3.237824202e0,7.952538989e0
3.916172583e0,-6.718995571e0,-1.086015344e0,2.343764305e0,7.198441632e0
3.926205583e0,-7.603912830e0,1.072132349e0,1.016214848e0,7.746073245e0
3.936238583e0,-7.936742783e0,2.518154621e0,1.814145297e-1,8.328619329e0
3.946271583e0,-7.220980644e0,2.330380917e0,-4.288436472e-2,7.587824178e0
3.956304583e0,-6.473401070e0,1.670685410e0,-6.475009769e-2,6.685828574e0
3.966336583e0,-5.817400455e0,8.789474368e-1,-4.715326428e-2,5.883614543e0
3.976369917e0,-5.189554214e0,3.561719880e-2,-9.076540172e-2,5.190470103e0
3.986402917e0,-4.612082481e0,-7.561975718e-1,-2.198019475e-1,4.678830247e0
3.996435917e0,-4.015645504e0,-1.310416937e0,-3.659659326e-1,4.239874105e0
4.006468917e0,-3.097585201e0,4.029415548e-2,-7.634491324e-1,3.190534795e0
4.016500917e0,-1.862420678e0,2.582870960e0,-1.333335876e0,3.452190281e0
4.026533917e0,-7.338877916e-1,4.118930817e0,-1.745394826e0,4.533275357e0
4.036566917e0,-1.571108550e-1,4.407619476e0,-2.119636774e0,4.893327429e0
4.046599917e0,-3.006163538e-1,4.365317822e0,-2.673237801e0,5.127628127e0
4.056632917e0,-8.935558796e-1,4.028209686e0,-3.210946083e0,5.228297059e0
4.066664917e0,-1.537550569e0,3.434831619e0,-3.637011766e0,5.233544171e0
4.076697917e0,-1.786032677e0,2.726949692e0,-3.989283562e0,5.151752195e0
4.086730917e0,-1.471124053e0,2.361182213e0,-4.215587139e0,5.050798189e0
4.096763917e0,-8.036572933e-1,2.132174253e0,-4.359319210e0,4.918912082e0
4.106796917e0,-1.597997546e-1,1.487162232e0,-4.494098186e0,4.736465557e0
4.116829917e0,3.039767742e-1,3.949185014e-1,-4.674985886e0,4.701473762e0
4.126861917e0,5.366997719e-1,-9.361440539e-1,-4.926422119e0,5.043217944e0
4.136894917e0,6.229723096e-1,-2.086578846e0,-5.254166126e0,5.687544941e0
4.146927917e0,6.481156945e-1,-2.819921494e0,-5.630551815e0,6.330491681e0
4.156960917e0,6.143459082e-1,-3.040333986e0,-6.022196770e0,6.774061232e0
4.166993917e0,5.130819082e-1,-2.866108656e0,-6.410383224e0,7.040656571e0
4.177025917e0,3.887925446e-1,-2.498785734e0,-6.781623840e0,7.237783618e0
4.187058917e0,2.632697821e-1,-2.115812302e0,-7.084009647e0,7.397916285e0
4.197091917e0,1.352139413e-1,-1.858538866e0,-7.259428501e0,7.494781631e0
4.207124917e0,1.904354431e-3,-1.802233219e0,-7.312748432e0,7.531556136e0
4.217157917e0,-1.424239427e-1,-1.836937904e0,-7.278662682e0,7.508232540e0
4.227190917e0,-2.898498774e-1,-1.877781153e0,-7.151261806e0,7.399366218e0
4.237222917e0,-4.283911586e-1,-1.858149886e0,-6.960230350e0,7.216719928e0
4.247255917e0,-5.461124778e-1,-1.869221210e0,-6.755413532e0,7.030493494e0
4.257288917e0,-6.512623429e-1,-1.853609443e0,-6.615975857e0,6.901532232e0
4.267321917e0,-7.515114546e-1,-1.736771822e0,-6.592021465e0,6.858271854e0
4.277354917e0,-8.255117536e-1,-1.522244334e0,-6.706726074e0,6.926678288e0
4.287386917e0,-8.697798848e-1,-1.385633469e0,-6.931510925e0,7.121961869e0
4.297419917e0,-8.937584758e-1,-1.427930593e0,-7.229551315e0,7.423220475e0
4.307452917e0,-9.380982518e-1,-1.577282786e0,-7.566200733e0,7.785579160e0
4.317485917e0,-1.015088558e0,-1.760926127e0,-7.913788319e0,8.170637133e0
4.327518917e0,-1.117005348e0,-1.857708335e0,-8.246596336e0,8.526730460e0
4.337550917e0,-1.208483934e0,-1.830919147e0,-8.553082466e0,8.829944395e0
4.347583917e0,-1.280366421e0,-1.734994769e0,-8.824514389e0,9.084139983e0
4.357616917e0,-1.325337410e0,-1.697268605e0,-9.068362236e0,9.320538268e0
4.367649917e0,-1.374989033e0,-1.765931249e0,-9.290389061e0,9.556172713e0
4.377682917e0,-1.460293531e0,-1.875368476e0,-9.460337639e0,9.754355558e0
4.387715917e0,-1.590798020e0,-1.979093075e0,-9.565668106e0,9.896941652e0
4.397747917e0,-1.770022988e0,-2.050642967e0,-9.605846405e0,9.980501145e0
4.407780917e0,-1.936028957e0,-1.908436775e0,-9.583806992e0,9.961912241e0
4.417813917e0,-1.902926326e0,-1.343793273e0,-9.480541229e0,9.762559652e0
4.427846917e0,-1.650768161e0,-3.554227352e-1,-9.371811867e0,9.522721171e0
4.437879917e0,-1.276641607e0,8.757217526e-1,-8.724844933e0,8.861129808e0
4.447911917e0,-8.632122278e-1,3.822329938e-1,-5.967298985e0,6.041514262e0
4.457944917e0,-4.591453671e-1,-8.325501680e-1,-3.012404919e0,3.158882341e0
4.467977917e0,2.142143995e-1,-2.884124517e0,3.706950247e-1,2.915729213e0
4.478010917e0,9.479994178e-1,-3.409858465e0,4.535791397e0,5.753194004e0
4.488043917e0,1.120751739e0,-2.411934853e0,8.009078026e0,8.439125844e0
4.498075917e0,-6.567589045e-1,-2.239310741e0,4.452024460e0,5.026566089e0
4.508108917e0,-7.670358419e-1,-1.825513959e0,4.576397896e0,4.986407815e0
4.518141917e0,-6.709188819e-1,-1.737478852e0,4.588664532e0,4.952252729e0
4.528174917e0,-5.866854787e-1,-1.755593657e0,4.590057850e0,4.949236305e0
4.538207917e0,-2.959582210e-1,-1.526413083e0,4.245020390e0,4.520810356e0
4.548240917e0,4.487079680e-1,-7.027966976e-1,3.450026274e0,3.549358157e0
4.558272917e0,8.196670413e-1,-7.206106186e-2,2.578746080e0,2.706839153e0
4.568305917e0,-1.686698347e-1,7.491808534e-1,8.831558228e-1,1.170335709e0
4.578338917e0,-5.226381421e-1,1.372675538e0,1.466489196e0,2.075567229e0
4.588371917e0,-4.102666080e-1,2.272357702e0,7.659120020e-3,2.309109542e0
4.598404917e0,-2.564034760e-1,2.905722618e0,-1.323288083e0,3.203132533e0
4.608436917e0,-6.711692363e-2,3.320056915e0,-2.154740810e0,3.958559152e0
4.618469917e0,2.735813148e-2,3.337896824e0,-2.546978474e0,4.198738265e0
4.628502917e0,-1.193391681e-1,3.159554243e0,-2.473884583e0,4.014614524e0
4.638535917e0,-1.234283328e0,1.394626975e0,-2.043063402e0,2.764515834e0
4.648568917e0,-1.108509064e0,9.665371776e-1,-2.179168463e0,2.629022946e0
4.658600917e0,-1.031760812e0,9.145393968e-1,-1.834004164e0,2.294446328e0
4.668633917e0,-1.066062689e0,7.069121599e-1,-1.422481537e0,1.913025923e0
4.678666917e0,-1.062420845e0,5.714945793e-1,-1.279154539e0,1.758289066e0
4.688699917e0,-1.050287724e0,4.025859833e-1,-1.082691312e0,1.561217555e0
4.698732917e0,-1.047368169e0,2.621309757e-1,-8.176702857e-1,1.354354985e0
4.708764917e0,-1.061406970e0,1.122125909e-1,-5.628164411e-1,1.206622877e0
4.718797917e0,-1.084996581e0,-7.694242895e-2,-3.533321321e-1,1.143670107e0
4.728830917e0,-1.074078679e0,-2.300078720e-1,-1.557005644e-1,1.109410337e0
4.738863917e0,-1.051799774e0,-3.599124551e-1,2.699479833e-2,1.112002005e0
4.748896917e0,-1.046933651e0,-4.863614738e-1,2.103699595e-1,1.173402349e0
4.758929917e0,-1.062909961e0,-6.056708097e-1,3.737314939e-1,1.279175494e0
4.768961917e0,-1.091020465e0,-7.004835606e-1,5.363787413e-1,1.403105494e0
4.778994917e0,-1.144695997e0,-7.947917581e-1,7.024586201e-1,1.560599557e0
4.789027917e0,-1.233292103e0,-8.913960457e-1,8.647785783e-1,1.750268068e0
4.799060917e0,-1.343805432e0,-1.060612440e0,1.016486645e0,1.990968831e0
4.809093917e0,-1.483041406e0,-1.330277920e0,1.163782001e0,2.307258048e0
4.819125917e0,-1.646718860e0,-1.622065902e0,1.310417056e0,2.657061093e0
4.829158917e0,-1.897699714e0,-1.828145027e0,1.452135801e0,3.008666952e0
4.839191917e0,-2.284281731e0,-1.835870385e0,1.559014559e0,3.319471267e0
4.849224917e0,-2.807982445e0,-1.157974362e0,1.485506058e0,3.381182971e0
4.859257917e0,-2.820724010e0,4.749792218e-1,1.175782919e0,3.092661423e0
4.869289917e0,-2.486037016e0,2.220839262e0,8.488270640e-1,3.439914891e0
4.879322917e0,-2.629503965e0,3.549328089e0,4.066215456e-1,4.435917275e0
4.889355917e0,-3.256047964e0,4.350164890e0,3.504989669e-3,5.433764368e0
4.899388917e0,-3.636102200e0,5.427837849e0,-3.230788112e-1,6.541180538e0
4.909421917e0,-3.977311850e0,6.473443031e0,-5.188541412e-1,7.615358419e0
4.919453917e0,-4.336832523e0,7.153095722e0,-6.194131374e-1,8.388001394e0
4.929486917e0,-4.695277214e0,7.489422321e0,-6.761562824e-1,8.865340498e0
4.939519917e0,-4.928777695e0,7.704471588e0,-7.233562469e-1,9.174692162e0
4.949552917e0,-5.088113785e0,7.582028389e0,-7.184150219e-1,9.159267248e0
4.959585917e0,-5.192585468e0,7.266547680e0,-7.786068320e-1,8.965036956e0
4.969618917e0,-4.943058491e0,6.876057625e0,-9.454818368e-1,8.521028788e0
4.979651292e0,-4.448717594e0,6.057379246e0,-1.133531451e0,7.600514792e0
4.989684292e0,-3.688732624e0,5.023004055e0,-1.310315847e0,6.368221551e0
4.999717292e0,-2.770389318e0,3.841169834e0,-1.459701777e0,4.955842204e0
5.009750292e0,-1.716418266e0,2.761708260e0,-1.511534929e0,3.585786109e0
5.019783292e0,-7.238975167e-1,1.720580697e0,-1.479053020e0,2.381601013e0
5.029815292e0,1.183713600e-1,7.962968946e-1,-1.411683321e0,1.625100096e0
5.039848292e0,7.504599094e-1,2.445503697e-2,-1.338812590e0,1.534994226e0
5.049881292e0,1.141306520e0,-6.228989363e-1,-1.326302052e0,1.857326247e0
5.059914292e0,1.334475040e0,-1.137763858e0,-1.353583574e0,2.215292017e0
5.069947292e0,1.377394319e0,-1.537852883e0,-1.411362767e0,2.500830154e0
5.079979292e0,1.317656755e0,-1.842847824e0,-1.481854439e0,2.707064832e0
5.090012292e0,1.185226321e0,-1.992017627e0,-1.533387065e0,2.779239383e0
5.100045292e0,9.591801763e-1,-2.029365778e0,-1.542637944e0,2.723615960e0
5.110078292e0,6.872402430e-1,-1.926848054e0,-1.491342783e0,2.531629094e0
5.120111292e0,3.786896765e-1,-1.663642406e0,-1.369508624e0,2.187845013e0
5.130144292e0,4.487576708e-2,-1.262059212e0,-1.188667774e0,1.734283243e0
5.140176292e0,-2.869951725e-1,-7.074011564e-1,-9.517330527e-1,1.220073124e0
5.150209292e0,-6.048274636e-1,-6.345358491e-2,-6.952413321e-1,9.236899523e-1
5.160242292e0,-8.829213977e-1,6.182862520e-1,-4.466779828e-1,1.166768745e0
5.170275292e0,-1.107738972e0,1.281164408e0,-2.293184698e-1,1.709109367e0
5.180308292e0,-1.268707395e0,1.870206952e0,-6.002881750e-2,2.260729076e0
5.190340292e0,-1.361909151e0,2.321693897e0,5.529458076e-2,2.692232638e0
5.200373292e0,-1.391860962e0,2.617088556e0,1.056773812e-1,2.966074368e0
5.210406292e0,-1.369506836e0,2.755203485e0,1.038501933e-1,3.078551621e0
5.220439292e0,-1.310062528e0,2.741336107e0,5.077081174e-2,3.038711101e0
5.230472292e0,-1.212529898e0,2.650139570e0,-4.952063784e-2,2.914776284e0
5.240504292e0,-1.103878498e0,2.499548912e0,-1.698061675e-1,2.737722893e0
5.250537292e0,-1.000242352e0,2.336291790e0,-3.169138730e-1,2.561089318e0
5.260570292e0,-8.847023249e-1,2.185263634e0,-5.055792332e-1,2.411158583e0
5.270603292e0,-7.761598825e-1,2.015549183e0,-7.188281417e-1,2.276307661e0
5.280636292e0,-6.756874323e-1,1.807631016e0,-9.661226273e-1,2.158118701e0
5.290668292e0,-5.882646441e-1,1.600591302e0,-1.253464699e0,2.116393526e0
5.300701292e0,-5.297601819e-1,1.421361804e0,-1.554478288e0,2.171938760e0
5.310734292e0,-5.081805587e-1,1.302422643e0,-1.874183774e0,2.338186699e0
5.320767292e0,-5.314253569e-1,1.236123323e0,-2.205073595e0,2.583169243e0
5.330800292e0,-5.958306789e-1,1.242491722e0,-2.554848433e0,2.902765990e0
5.340833292e0,-7.099937201e-1,1.301286697e0,-2.897051573e0,3.254281175e0
5.350865292e0,-8.827521801e-1,1.392793417e0,-3.236571550e0,3.632426230e0
5.360898292e0,-1.079085946e0,1.548873901e0,-3.574173212e0,4.042047871e0
5.370931292e0,-1.298081636e0,1.738062501e0,-4.001015663e0,4.551263948e0
5.380964292e0,-1.524587989e0,1.832419872e0,-4.499976635e0,5.092339427e0
5.390997292e0,-1.773213744e0,1.608120084e0,-5.130568504e0,5.661543108e0
5.401029292e0,-2.068819046e0,7.205397487e-1,-5.947850704e0,6.338463361e0
5.411062292e0,-6.690047383e-1,-1.683133721e0,3.965406418e-1,1.854117295e0
5.421095292e0,-5.040844679e-1,-1.402216434e0,1.228044271e0,1.930907769e0
5.431128292e0,-4.485639334e-1,-1.144609094e0,1.224031687e0,1.734817901e0
5.441161292e0,-3.773061037e-1,-6.807267666e-1,1.220786810e0,1.447780806e0
5.451193292e0,-4.631331265e-1,-3.687675893e-1,1.076069593e0,1.228172463e0
5.461226292e0,-1.316754937e0,-3.424484015e0,-1.227828622e0,3.868914248e0
5.471259292e0,-1.559008509e-1,-2.819794655e0,-6.977178454e-1,2.909013091e0
5.481292292e0,4.125691354e-1,-1.732600093e0,1.057296339e-2,1.781075001e0
5.491325292e0,4.851677120e-1,-1.854927897e0,9.355679899e-2,1.919608837e0
5.501357292e0,1.131299883e-1,-1.375423074e0,7.084353268e-2,1.381884884e0
5.511390292e0,-4.360636324e-2,-4.739222825e-1,4.054368287e-2,4.776480241e-1
5.521423292e0,1.451595686e-2,1.408105195e-1,-6.163325533e-2,1.543922717e-1
5.531456292e0,-1.812683069e-3,6.665861607e-1,1.625275239e-2,6.667867330e-1
5.541489292e0,-1.008968521e-2,9.868426919e-1,2.805996314e-2,9.872930982e-1
5.551522292e0,-1.129556447e-2,1.109552979e0,4.654772580e-3,1.109620237e0
5.561554292e0,-9.886028245e-3,1.049761891e0,1.140382513e-2,1.049870377e0
5.571587292e0,-8.339797147e-3,8.545415401e-1,1.803190075e-2,8.547724525e-1
5.581620292e0,-8.429399692e-3,5.732450485e-1,1.135290414e-2,5.734194179e-1
5.591653292e0,-1.937411958e-3,2.527634799e-1,2.002545400e-3,2.527788372e-1
5.601686292e0,1.032931730e-3,-7.953796536e-2,2.325641690e-3,7.957866228e-2
5.611718292e0,-4.504490644e-4,-3.766679168e-1,-2.033154014e-3,3.766736733e-1
5.621751292e0,2.582433401e-3,-6.009061933e-1,-2.804208780e-3,6.009182853e-1
5.631784292e0,4.872219171e-3,-7.246553302e-1,-5.071624182e-3,7.246894559e-1
5.641817292e0,3.650166094e-3,-7.394174337e-1,-4.569070879e-3,7.394405598e-1
5.651850292e0,5.004117265e-3,-6.461426020e-1,-5.927016493e-3,6.461891618e-1
5.661882292e0,4.104044347e-4,-4.592130780e-1,-7.209751755e-3,4.592698553e-1
5.671915292e0,3.267177381e-3,-2.142877132e-1,-4.803319462e-3,2.143664394e-1
5.681948292e0,2.151349036e-4,4.628564417e-2,-6.853006780e-4,4.629121706e-2
5.691981292e0,-2.716206480e-3,2.700977027e-1,2.156468108e-4,2.701114461e-1
5.702014292e0,-2.849570941e-3,4.135974944e-1,1.405308023e-3,4.136096980e-1
5.712046292e0,-4.300194792e-3,4.600363672e-1,2.871378092e-3,4.600654254e-1
5.722079292e0,-3.732949961e-3,4.250563681e-1,4.360635299e-3,4.250951260e-1
5.732112292e0,-1.004807884e-3,3.137298524e-1,4.157436080e-3,3.137590066e-1
5.742145292e0,-9.557708399e-4,1.675537676e-1,3.370877588e-3,1.675903975e-1
5.752178292e0,-1.714771730e-3,2.904906403e-3,1.310922438e-3,3.619038676e-3
5.762210292e0,3.943656629e-4,-1.466193646e-1,-2.213422675e-3,1.466366013e-1
5.772243292e0,-1.324172248e-3,-2.582612038e-1,-2.752446104e-3,2.582792651e-1
5.782276292e0,1.663473551e-3,-3.149986267e-1,-2.910298994e-3,3.150164628e-1
5.792309292e0,3.572693793e-3,-2.982265651e-1,-7.915976457e-3,2.983529973e-1
5.802342292e0,1.877918374e-3,-2.151858509e-1,-4.744922742e-3,2.152463502e-1
5.812375292e0,-2.292325487e-3,-9.112995118e-2,5.305327941e-4,9.116032154e-2
5.822407292e0,7.436851738e-4,3.732034564e-2,-6.857361179e-3,3.795240004e-2
5.832440292e0,-3.053339315e-4,1.568624675e-1,-3.567025997e-3,1.569033162e-1
5.842473292e0,-2.660906874e-3,2.169959247e-1,2.164407447e-2,2.180889216e-1
5.852506292e0,1.842498314e-3,2.431114167e-1,-1.015833020e-2,2.433305312e-1
5.862539292e0,-7.420651964e-4,2.068394721e-1,-1.013209298e-2,2.070888147e-1
5.872571292e0,-1.404127106e-3,1.166898683e-1,1.264033094e-2,1.173808966e-1
5.882604292e0,-4.769344523e-4,2.228419669e-2,6.826861762e-3,2.331134767e-2
5.892637292e0,2.994495910e-3,-5.057403445e-2,-8.728129789e-3,5.140895074e-2
5.902670292e0,7.061521756e-4,-1.185864881e-1,4.649798386e-3,1.186797136e-1
5.912703292e0,-1.499477890e-3,-1.653635800e-1,2.898503561e-3,1.653957779e-1
5.922735292e0,1.676497632e-3,-1.658335179e-1,-1.579406206e-3,1.658495126e-1
5.932768292e0,6.197553012e-4,-1.385654062e-1,-1.744255889e-3,1.385777699e-1
5.942801292e0,1.761417487e-3,-8.965223283e-2,1.172032556e-3,8.967719388e-2
5.952834292e0,-3.960093600e-4,-1.850695349e-2,2.025841968e-3,1.862171278e-2
5.962867292e0,1.083385199e-3,5.132477731e-2,-3.673074069e-3,5.146744565e-2
5.972899292e0,-1.999921078e-4,9.616122395e-2,2.169368789e-3,9.618589891e-2
5.982931917e0,1.434866863e-4,1.130226776e-1,-6.444519386e-6,1.130227689e-1
5.992964917e0,1.665216987e-3,1.067040563e-1,2.195723355e-3,1.067396354e-1
6.002997917e0,-3.249192145e-3,8.211684227e-2,-4.801556934e-4,8.218250169e-2
6.013030917e0,-2.022806555e-3,3.894141316e-2,5.259865429e-4,3.899746232e-2
6.023062917e0,1.148457639e-3,-3.719360102e-3,2.698700642e-3,4.736621124e-3
6.033095917e0,-2.459734678e-4,-4.352456331e-2,3.236935008e-4,4.352646197e-2
6.043128917e0,1.016007154e-3,-6.761625409e-2,-8.431989700e-4,6.762914366e-2
6.053161917e0,3.995871521e-5,-7.644436508e-2,4.218891263e-6,7.644437564e-2
6.063194917e0,6.331815384e-4,-6.563245505e-2,-6.126081571e-4,6.563836808e-2
6.073226917e0,1.518149977e-3,-3.915930539e-2,-1.817087177e-4,3.918914386e-2
6.083259917e0,-1.758028520e-3,-1.717697829e-3,1.338277594e-3,2.798595546e-3
6.093292917e0,6.816933164e-4,3.121947870e-2,3.869964276e-4,3.122931831e-2
6.103325917e0,-2.852965263e-4,5.066695437e-2,1.076405635e-3,5.067919009e-2
6.113358917e0,-1.341772499e-3,6.600223482e-2,1.347781741e-3,6.602962873e-2
6.123390917e0,2.137317555e-3,6.206297874e-2,1.588055049e-3,6.212007225e-2
6.133423917e0,-1.147425501e-3,5.254697055e-2,1.414683298e-3,5.257853200e-2
6.143456917e0,2.256451407e-3,2.837872319e-2,1.041735290e-3,2.848734307e-2
6.153489917e0,-1.295406371e-3,9.469745681e-3,-7.146194112e-4,9.584614850e-3
6.163522917e0,-3.146532108e-4,-1.417862438e-2,5.730979610e-4,1.419369005e-2
6.173555917e0,8.741818601e-4,1.166815311e-2,1.182069257e-2,1.663246114e-2
6.183587917e0,-1.889324165e-3,5.208184719e-1,1.140290052e-1,5.331585733e-1
6.193620917e0,-4.970078915e-2,1.804323912e0,2.439667732e-1,1.821421075e0
6.203653917e0,-1.120016575e-1,3.169140100e0,2.515061796e-1,3.181076658e0
6.213686917e0,-1.234372705e-1,4.055891991e0,1.474913508e-1,4.060449519e0
6.223719917e0,-6.015468016e-2,4.342057705e0,-4.603502154e-2,4.342718379e0
6.233751917e0,2.612455003e-2,4.079308987e0,-2.457534671e-1,4.086788356e0
6.243784917e0,-1.968805864e-2,3.502680302e0,-2.055936009e-1,3.508764119e0
6.253817917e0,-1.461860836e-1,2.639604330e0,2.198523283e-2,2.643740672e0
6.263850917e0,-2.243929058e-1,1.635195851e0,1.561280489e-1,1.657888300e0
6.273883917e0,-2.389316410e-1,6.329703331e-1,1.431387514e-1,6.915406523e-1
6.283915917e0,-1.326725930e-1,-3.969756961e-1,6.109581888e-2,4.229945854e-1
6.293948917e0,7.741779089e-2,-1.311396003e0,-3.441286087e-2,1.314129840e0
6.303981917e0,1.163607985e-1,-1.941672444e0,-8.558359742e-2,1.947037819e0
6.314014917e0,9.794210643e-2,-2.375592470e0,-6.789728254e-2,2.378579888e0
6.324047917e0,3.272567317e-2,-2.802095413e0,-1.108137518e-2,2.802308418e0
6.334079917e0,1.546359714e-2,-3.305390358e0,4.549515899e-3,3.305429660e0
6.344112917e0,3.282891214e-2,-3.906844854e0,-1.231721602e-2,3.907002197e0
6.354145917e0,4.634738341e-2,-4.587721348e0,-2.303484082e-2,4.588013279e0
6.364178917e0,4.567520320e-2,-5.350130081e0,-1.858736202e-2,5.350357334e0
6.374211917e0,4.249645397e-2,-6.222664356e0,-1.738707535e-2,6.222833756e0
6.384243917e0,4.740700126e-2,-7.191399574e0,-1.488295570e-2,7.191571230e0
6.394276917e0,3.730882704e-2,-8.256076813e0,-3.163981950e-3,8.256161717e0
6.404309917e0,3.037945740e-2,-9.420061111e0,1.347606070e-2,9.420119737e0
6.414342917e0,5.789959803e-3,-1.069034672e1,3.467455879e-2,1.069040452e1
6.424375917e0,-9.804802015e-3,-1.209606934e1,4.376829416e-2,1.209615249e1
6.434407917e0,4.680539370e-1,-1.280816364e1,-4.011062905e-2,1.281677570e1
6.444440917e0,3.036154032e0,-1.043564034e1,-3.667669892e-1,1.087452705e1
6.454473917e0,4.599857807e0,-8.926074028e0,-4.395418465e-1,1.005120323e1
6.464506917e0,5.075386047e0,-6.439407349e0,-7.672725916e-1,8.234938844e0
6.474539917e0,4.494890213e0,-5.775375366e0,-1.208520889e0,7.417514502e0
6.484571917e0,1.645932555e0,-3.268896580e0,-1.348996878e0,3.900586033e0
6.494604917e0,5.274669528e-1,-1.566897154e0,-1.451060176e0,2.199764467e0
6.504637917e0,3.865370452e-1,-1.369898081e0,-1.466142416e0,2.043429770e0
6.514670917e0,-1.299225986e-1,-6.891722679e-1,-1.446903467e0,1.607907939e0
6.524703917e0,-1.329821706e0,9.374725819e-1,-1.423520446e0,2.161872122e0
6.534736917e0,-2.038760185e0,1.894248605e0,-1.458044052e0,3.141753225e0
6.544768917e0,-2.765861034e0,2.591481924e0,-1.466678739e0,4.064100435e0
6.554801917e0,-4.664147854e0,1.575434923e0,-1.283833385e0,5.087681059e0
6.564834917e0,-5.974742889e0,-3.398639560e-1,-1.231643200e0,6.109828563e0
6.574867917e0,-4.530923843e0,-9.634633660e-1,-1.369985938e0,4.830568704e0
6.584900917e0,2.590217829e0,-1.665544391e0,1.103742048e-1,3.081468641e0
6.594932917e0,1.295075297e0,-1.236034870e0,-6.351396441e-2,1.791378310e0
6.604965917e0,2.533992231e-1,3.140027225e-1,-5.704788119e-2,4.075086953e-1
6.614998917e0,-3.242553473e-1,7.811403871e-1,5.688092206e-4,8.457672009e-1
6.625031917e0,-1.922744632e0,6.351576447e-1,1.537563205e-1,2.030766643e0
6.635064917e0,-2.479277134e0,1.593801618e0,1.307532638e-1,2.950273736e0
6.645096917e0,5.102956891e-1,7.299727201e-1,-7.267667353e-2,8.936127581e-1
6.655129917e0,1.336089335e-3,-2.509046793e-1,-8.544626087e-2,2.650584968e-1
6.665162917e0,-1.916013286e-2,-8.598291874e-1,-1.308488548e-1,8.699395180e-1
6.675195917e0,3.744007349e-1,-3.875471354e-1,1.725963876e-2,5.391350365e-1
6.685228917e0,9.941877425e-2,-9.308851510e-2,2.816714905e-2,1.390789438e-1
6.695260917e0,-1.189130321e-1,1.474151611e-1,-1.890528761e-2,1.903390366e-1
6.705293917e0,-1.048142090e-1,1.328003556e-1,6.891759578e-3,1.693205516e-1
6.715326917e0,4.974527657e-2,-5.523427203e-2,3.157475032e-3,7.440018143e-2
6.725359917e0,2.631787024e-2,-2.965565212e-2,-6.080665626e-4,3.965422729e-2
6.735392917e0,-2.429630421e-2,2.650082856e-2,-3.443001769e-3,3.611728913e-2
6.745424917e0,1.440108381e-2,-1.248501986e-2,2.171234228e-3,1.918283592e-2
6.755457917e0,4.357238300e-3,1.268875320e-3,-5.481194239e-4,4.571214837e-3
6.765490917e0,3.191923490e-3,1.116397791e-3,-9.042399470e-4,3.500338480e-3
6.775523917e0,5.286499858e-3,-3.427221440e-3,9.551791009e-4,6.372228390e-3
6.785556917e0,3.981614485e-3,2.378280973e-3,-5.777329206e-4,4.673676243e-3
6.795588917e0,8.158516139e-3,-1.463062479e-3,-1.248583198e-3,8.382177367e-3
6.805621917e0,8.334606886e-3,-2.269209130e-3,-8.735589217e-4,8.682055471e-3
6.815654917e0,1.025048550e-2,-3.697462380e-3,-8.810577914e-3,1.401320678e-2
6.825687917e0,1.269896887e-2,-1.249410771e-2,-2.564939857e-2,3.122912398e-2
6.835720917e0,1.239883061e-2,-1.459587552e-2,-5.656177551e-2,5.971603663e-2
6.845752917e0,1.570925303e-2,-1.694479585e-2,-9.140673280e-2,9.428201068e-2
6.855785917e0,1.055284031e-2,-2.214142308e-2,-6.644306332e-2,7.082574191e-2
6.865818917e0,-1.776437042e-3,-2.662054729e-3,-2.321606688e-2,2.343561447e-2
6.875851917e0,-7.770147640e-3,1.249772310e-2,8.898992091e-3,1.719768407e-2
6.885884917e0,-1.714147627e-3,7.013878785e-4,-4.195680376e-4,1.899021954e-3
6.895916917e0,1.828219829e-4,-1.961506903e-3,-2.839316148e-3,3.455813855e-3
6.905949917e0,-1.648367499e-3,-4.031049088e-3,-1.540916972e-2,1.601277564e-2
6.915982917e0,-3.479823470e-3,-9.591729380e-3,-3.684734926e-2,3.823398477e-2
6.926015917e0,-7.691553328e-3,-1.899021911e-3,-1.044410169e-1,1.047410726e-1
6.936048917e0,1.698374301e-1,-3.711505532e-1,2.845605314e-1,4.975662588e-1
6.946080917e0,3.989084661e-1,-5.918561816e-1,1.145032793e-2,7.138296814e-1
6.956113917e0,1.343044937e-1,-3.203972578e-1,-2.311860174e-1,4.172997418e-1
6.966146917e0,-5.000474304e-2,-6.231898814e-2,-1.169354171e-1,1.416263477e-1
6.976179542e0,1.456812397e-2,-2.228768356e-2,3.505171090e-2,4.401810436e-2
6.986212542e0,7.346546743e-3,-4.797077924e-2,1.851729117e-2,5.194282898e-2
6.996244542e0,-6.639309693e-3,-5.668063648e-3,4.189904779e-2,4.279880354e-2
7.006277542e0,-6.444694847e-2,1.265460700e-1,9.266872704e-2,1.695724328e-1
7.016310542e0,-2.196322829e-1,4.020327628e-1,1.840929091e-1,4.937194357e-1
7.026343542e0,-5.957922339e-1,9.221063256e-1,3.134100139e-1,1.141697989e0
7.036376542e0,-9.735589623e-1,1.131915212e0,3.906667233e-1,1.543265884e0
7.046408542e0,-8.680920005e-1,1.351337552e0,6.603692174e-1,1.736601395e0
7.056441542e0,-8.369910717e-1,1.989524126e0,7.591429353e-1,2.288024978e0
7.066474542e0,-1.086074948e0,2.181802750e0,5.110763311e-1,2.490184943e0
7.076507542e0,-1.887198448e0,2.017044306e0,-2.246490866e-1,2.771363009e0
7.086540542e0,-2.411490679e0,1.389021635e0,-8.574430346e-1,2.912022829e0
7.096572542e0,-2.483680010e0,1.375029087e0,-1.178281188e0,3.073714030e0
7.106605542e0,-2.410064459e0,1.965512514e0,-1.297772408e0,3.369846192e0
7.116638542e0,-2.783255100e0,2.291349649e0,-1.487770677e0,3.900032533e0
7.126671542e0,-2.904240370e0,2.103713036e0,-1.279391170e0,3.807500811e0
7.136704542e0,-3.239299059e0,2.181119204e0,-8.538310528e-1,3.997420023e0
7.146736542e0,-4.143740654e0,1.841176867e0,-4.771713912e-1,4.559409107e0
7.156769542e0,-4.603381634e0,1.222198486e0,-5.950012058e-2,4.763237541e0
7.166802542e0,-4.645858288e0,7.370686531e-1,3.283811808e-1,4.715411290e0
7.176835542e0,-4.454075813e0,6.785176992e-1,4.079974294e-1,4.523896498e0
7.186868542e0,-4.138824940e0,4.199371040e-1,8.253393322e-2,4.160893042e0
7.196900542e0,-3.696074486e0,3.618935049e-1,-4.871300757e-1,3.745561270e0
7.206933542e0,-3.153459311e0,4.867763519e-1,-1.103723645e0,3.376309039e0
7.216966542e0,-2.705444574e0,7.559481859e-1,-1.587918043e0,3.226820682e0
7.226999542e0,-2.596570015e0,8.881842494e-1,-1.914248586e0,3.345951995e0
7.237032542e0,-2.854778528e0,9.884059429e-1,-2.198668242e0,3.736421923e0
7.247064542e0,-3.396711588e0,1.409233451e0,-2.357865810e0,4.368423023e0
7.257097542e0,-4.140189171e0,1.178837061e0,-2.352943659e0,4.905829904e0
7.267130542e0,-4.786075115e0,3.936876953e-1,-2.004908323e0,5.203956417e0
7.277163542e0,-4.869810104e0,1.648966223e-1,-1.493409753e0,5.096323581e0
7.287196542e0,-4.520452023e0,-6.106863916e-2,-1.205116510e0,4.678730776e0
7.297228542e0,-4.371269226e0,-4.490030706e-1,-1.125173569e0,4.536035049e0
7.307261542e0,-4.623024940e0,-1.151966095e0,-1.150437713e0,4.901315376e0
7.317294542e0,-5.121372223e0,-1.681020260e0,-1.199283361e0,5.522007166e0
7.327327542e0,-5.200302124e0,-1.482302666e0,-1.092071533e0,5.516609793e0
7.337360542e0,-4.966719151e0,-1.594291806e0,-8.992578983e-1,5.293272169e0
7.347392542e0,-4.847381592e0,-1.758930087e0,-5.022261739e-1,5.181039903e0
7.357425542e0,-4.537202358e0,-1.979132771e0,-2.237897515e-1,4.955123976e0
7.367458542e0,-3.911086798e0,-1.853180885e0,-2.075094432e-1,4.332890433e0
7.377491542e0,-3.208849907e0,-1.479630470e0,-3.613365591e-1,3.551983694e0
7.387524542e0,-2.651538372e0,-1.364876986e0,-5.403840169e-2,2.982694264e0
7.397556542e0,-2.335906744e0,-1.284026146e0,4.150904715e-1,2.697681145e0
7.407589542e0,-2.371202946e0,-1.506249905e0,6.332634091e-1,2.879655314e0
7.417622542e0,-2.713431358e0,-1.668179154e0,7.175245285e-1,3.265022646e0
7.427655542e0,-3.155360222e0,-1.681143641e0,7.735823989e-1,3.658001066e0
7.437688542e0,-3.483487129e0,-1.959814668e0,8.680516481e-1,4.090118553e0
7.447720542e0,-3.739025354e0,-2.164250612e0,1.006969094e0,4.436020522e0
7.457753542e0,-3.774233818e0,-2.350816727e0,1.200047135e0,4.605571987e0
7.467786542e0,-3.660835266e0,-2.543008327e0,1.396859527e0,4.671169311e0
7.477819542e0,-3.528582096e0,-2.666303635e0,1.630324125e0,4.713599838e0
7.487852542e0,-3.346857548e0,-2.649457932e0,1.970952392e0,4.701673756e0
7.497885542e0,-3.103451490e0,-2.564103127e0,2.499040365e0,4.738273815e0
7.507917542e0,-2.877260685e0,-2.401748657e0,3.259243965e0,4.966859862e0
7.517950542e0,-2.720372677e0,-2.228774071e0,4.210519791e0,5.486012966e0
7.527983542e0,-2.809164286e0,-1.979043484e0,5.094541073e0,6.145109099e0
7.538016542e0,-3.104945421e0,-1.551361203e0,5.698559761e0,6.672405189e0
7.548048542e0,-3.467735767e0,-1.222704411e0,5.947213173e0,6.992105688e0
7.558081542e0,-3.863173246e0,-7.320737839e-1,5.924367428e0,7.110426779e0
7.568114542e0,-4.275323868e0,-7.780969888e-2,5.697236538e0,7.123408783e0
7.578147542e0,-4.602835655e0,5.068319440e-1,5.386680603e0,7.103471166e0
7.588180542e0,-4.751955032e0,8.071439266e-1,5.113829136e0,7.027361267e0
7.598212542e0,-4.799494743e0,1.167987108e0,4.826925755e0,6.906414114e0
7.608245542e0,-4.730220795e0,1.704279780e0,4.488826275e0,6.740112734e0
7.618278542e0,-4.546505451e0,2.105036736e0,4.126790524e0,6.490939185e0
7.628311542e0,-4.336297035e0,2.282687902e0,3.776402473e0,6.186707661e0
7.638344542e0,-4.203118801e0,2.297492981e0,3.438800573e0,5.896611827e0
7.648377542e0,-4.214041233e0,2.645983458e0,3.076628923e0,5.850215167e0
7.658409542e0,-4.211520195e0,3.052844048e0,2.755779505e0,5.886516781e0
7.668442542e0,-4.211599350e0,3.320003033e0,2.557641029e0,5.941507962e0
7.678475542e0,-4.176156998e0,3.644293785e0,2.473541260e0,6.069561008e0
7.688508542e0,-4.074317455e0,4.233265400e0,2.495970249e0,6.383609180e0
7.698540542e0,-3.902414322e0,4.958730221e0,2.572102070e0,6.814216903e0
7.708573542e0,-3.705947161e0,5.787695885e0,2.533726692e0,7.324700606e0
7.718606542e0,-3.602393150e0,6.761355877e0,2.346124649e0,8.012332405e0
7.728639542e0,-3.591843367e0,7.907136440e0,2.066441774e0,8.927167919e0
7.738672542e0,-3.631891489e0,9.231294632e0,1.780626535e0,1.007859451e1
7.748705542e0,-3.717565775e0,1.086675930e1,1.525251865e0,1.158590291e1
7.758737542e0,-3.805117846e0,1.275645924e1,1.301568508e0,1.337535998e1
7.768770542e0,-1.202584028e0,7.776432037e0,6.347290874e-1,7.894427439e0
7.778803542e0,7.659713626e-1,3.692503214e0,3.303660154e-1,3.785555946e0
7.788836542e0,1.485616565e0,2.580356121e0,1.747779781e-3,2.977464919e0
7.798869542e0,2.068336487e0,1.916184664e0,-2.370698601e-1,2.829484336e0
7.808901542e0,2.565852642e0,2.011598587e0,-5.609419942e-1,3.308290280e0
7.818934542e0,2.903619051e0,2.371486664e0,-8.734636903e-1,3.849401435e0
7.828967542e0,3.310534239e0,2.221028328e0,-1.024493694e0,4.116089298e0
7.839000542e0,3.846764326e0,1.580544114e0,-9.572856426e-1,4.267565029e0
7.849033542e0,4.291478634e0,1.254322290e0,-9.169214964e-1,4.564083512e0
7.859065542e0,4.484726906e0,1.603569508e0,-9.617382884e-1,4.858924894e0
7.869098542e0,4.348114014e0,2.391202927e0,-9.370656610e-1,5.049954353e0
7.879131542e0,3.707767248e0,2.867379189e0,-6.943984032e-1,4.738310935e0
7.889164542e0,2.455142260e0,2.554867744e0,-1.843008548e-1,3.548103650e0
7.899197542e0,1.235629797e0,2.828324556e0,4.112157822e-1,3.113727543e0
7.909229542e0,4.094761908e-1,3.139962196e0,1.138825059e0,3.365108596e0
7.919262542e0,9.396883100e-2,2.691730976e0,2.008438349e0,3.359772372e0
7.929295542e0,1.130329370e-1,1.905754566e0,2.721970558e0,3.324725647e0
7.939328542e0,2.223277241e-1,1.154522896e0,3.138061762e0,3.351087041e0
7.949361542e0,2.993779182e-1,7.314682603e-1,3.325318098e0,3.417954565e0
7.959393542e0,3.756396770e-1,7.895739079e-1,3.373878479e0,3.485339024e0
7.969426542e0,5.087336302e-1,1.018978953e0,3.283753157e0,3.475652861e0
7.979459542e0,7.495480776e-1,1.180543303e0,3.099420071e0,3.400280810e0
7.989492542e0,1.101774693e0,1.376496673e0,2.777828932e0,3.290134365e0
7.999525542e0,1.404968619e0,1.166544557e0,2.353271008e0,2.978698954e0
8.009557542e0,1.600328207e0,4.942902327e-1,1.977079511e0,2.591180541e0
8.019590542e0,1.703611374e0,-3.500846922e-1,1.651186705e0,2.398180256e0
8.029623542e0,1.799116850e0,-1.000427604e0,1.329987049e0,2.450824837e0
8.039656542e0,1.939633250e0,-1.247134328e0,1.057502031e0,2.536894110e0
8.049689542e0,2.075995445e0,-1.280028820e0,8.139430285e-1,2.571134793e0
8.059721542e0,2.152346373e0,-1.265175104e0,6.036904454e-1,2.568599834e0
8.069754542e0,1.996403575e0,-9.474743009e-1,4.754396677e-1,2.260393254e0
8.079787542e0,1.715258718e0,-9.098470211e-1,5.132772923e-1,2.008329567e0
8.089820542e0,1.476470113e0,-1.178747177e0,7.750730515e-1,2.042093812e0
8.099853542e0,1.374033689e0,-1.367270231e0,1.124615908e0,2.241017047e0
8.109885542e0,1.488199949e0,-1.359823227e0,1.390700579e0,2.449062351e0
8.119918542e0,1.721794367e0,-1.205720425e0,1.477542043e0,2.569332223e0
8.129951542e0,2.017326117e0,-1.085730314e0,1.358566523e0,2.663478547e0
8.139984542e0,2.285407305e0,-9.667714238e-1,1.116442323e0,2.721061740e0
8.150017542e0,2.408894539e0,-8.112884760e-1,8.352571130e-1,2.675559070e0
8.160049542e0,2.344686508e0,-7.590692043e-1,6.025874019e-1,2.537095279e0
8.170082542e0,2.121205568e0,-8.053401113e-1,4.219535291e-1,2.307841099e0
8.180115542e0,1.878237128e0,-8.628026247e-1,2.077333927e-1,2.077343554e0
8.190148542e0,1.714028001e0,-8.054270744e-1,3.996266052e-2,1.894254939e0
8.200181542e0,1.618319869e0,-6.719307899e-1,-1.046408564e-1,1.755391664e0
8.210213542e0,1.519961715e0,-4.931563437e-1,-2.420082241e-1,1.616185254e0
8.220246542e0,1.385295987e0,-3.381340206e-1,-3.457684219e-1,1.467288448e0
8.230279542e0,1.218863964e0,-2.466148138e-1,-4.161337316e-1,1.311341112e0
8.240312542e0,1.068215370e0,-2.368804216e-1,-4.545618296e-1,1.184830312e0
8.250345542e0,9.835283756e-1,-2.698112130e-1,-4.517135322e-1,1.115424256e0
8.260377542e0,1.001306772e0,-3.591458797e-1,-4.010130763e-1,1.136843218e0
8.270410542e0,1.118099093e0,-4.062597156e-1,-3.080090582e-1,1.228845848e0
8.280443542e0,1.283042431e0,-4.050208330e-1,-1.983169317e-1,1.359988735e0
8.290476542e0,1.448274016e0,-3.499419093e-1,-9.004808962e-2,1.492670635e0
8.300509542e0,1.558285475e0,-2.479971796e-1,-2.907335293e-3,1.577898816e0
8.310541542e0,1.582055330e0,-1.361840665e-1,4.500045627e-2,1.588543424e0
8.320574542e0,1.522278547e0,-7.193369418e-2,1.300271899e-1,1.529514139e0
8.330607542e0,1.398172379e0,-3.678293899e-2,1.769391894e-1,1.409803696e0
8.340640542e0,1.351288676e0,1.263729632e-1,8.511178941e-2,1.359851179e0
8.350673542e0,1.319309473e0,3.133784235e-1,6.091381423e-3,1.356031204e0
8.360705542e0,1.250773787e0,4.389904141e-1,-1.314143464e-2,1.325639600e0
8.370738542e0,1.076771140e0,5.793230534e-1,-9.459242225e-3,1.222759488e0
8.380771542e0,8.508004546e-1,5.703908205e-1,-7.462439686e-2,1.027022834e0
8.390804542e0,6.262239218e-1,5.836803317e-1,-1.268977821e-1,8.654144538e-1
8.400837542e0,4.401584566e-1,5.659998655e-1,-1.255571544e-1,7.279147709e-1
8.410869542e0,3.038319945e-1,5.278593302e-1,-1.355369687e-1,6.239548247e-1
8.420902542e0,2.363765240e-1,4.864815176e-1,-1.436428428e-1,5.596171855e-1
8.430935542e0,2.271262556e-1,4.508328140e-1,-1.196592301e-1,5.188014008e-1
8.440968542e0,2.271683216e-1,4.269381166e-1,-9.285637736e-2,4.924468586e-1
8.451001542e0,2.117173672e-1,4.109562039e-1,-9.361316264e-2,4.716700853e-1
8.461033542e0,1.907870620e-1,3.900168240e-1,-1.238038242e-1,4.514866697e-1
8.471066542e0,1.734972298e-1,3.897629678e-1,-1.751022488e-1,4.611694454e-1
8.481099542e0,1.589789987e-1,3.776096404e-1,-2.423800975e-1,4.760372613e-1
8.491132542e0,1.469775289e-1,3.350377381e-1,-2.796370685e-1,4.604884038e-1
8.501165542e0,1.367331445e-1,2.819939554e-1,-2.638400197e-1,4.096682800e-1
8.511197542e0,1.408418119e-1,2.451822609e-1,-2.209522426e-1,3.588462770e-1
8.521230542e0,1.450299025e-1,2.728852630e-1,-1.736640930e-1,3.544844941e-1
8.531263542e0,1.165017039e-1,3.444291949e-1,-1.544147283e-1,3.950291453e-1
8.541296542e0,4.852638394e-2,4.262279272e-1,-1.734880209e-1,4.627344263e-1
8.551329542e0,-3.801307455e-2,5.113785267e-1,-2.289215624e-1,5.615675143e-1
8.561361542e0,-1.005275846e-1,5.406541228e-1,-3.080925345e-1,6.303441010e-1
8.571394542e0,-1.268594861e-1,4.885320365e-1,-3.215179145e-1,5.984401802e-1
8.581427542e0,-8.984954655e-2,3.996115029e-1,-2.555154562e-1,4.827529830e-1
8.591460542e0,8.133699303e-4,3.237278759e-1,-1.549041420e-1,3.588811676e-1
8.601493542e0,1.116144508e-1,2.895933390e-1,-4.297414050e-2,3.133191095e-1
8.611525542e0,2.050279230e-1,2.853313684e-1,5.848629773e-2,3.561896771e-1
8.621558542e0,2.635357082e-1,2.893317044e-1,1.092791781e-1,4.063321836e-1
8.631591542e0,2.813875377e-1,2.693023384e-1,1.250895858e-1,4.090844660e-1
8.641624542e0,2.781089246e-1,2.288499624e-1,1.250685602e-1,3.812597854e-1
8.651657542e0,2.846599519e-1,2.646665275e-1,7.605022192e-2,3.960597117e-1
8.661689542e0,2.584469914e-1,2.250397503e-1,4.873071983e-2,3.461393067e-1
8.671722542e0,2.324190140e-1,1.622827649e-1,8.644387126e-2,2.963559291e-1
8.681755542e0,2.185165137e-1,2.606527507e-1,2.178439647e-1,4.039125106e-1
8.691788542e0,1.525977999e-1,3.274811506e-1,3.314529061e-1,4.902968708e-1
8.701821542e0,-5.125248339e-3,5.752613544e-1,2.930993736e-1,6.456462939e-1
8.711853542e0,-2.093072236e-1,4.576662779e-1,1.628149450e-1,5.289391667e-1
8.721886542e0,-5.048621893e-1,2.515173554e-1,-1.136351097e-2,5.641594984e-1
8.731919542e0,-7.581580281e-1,5.405162647e-2,-2.924951613e-1,8.144191754e-1
8.741952542e0,-8.787986636e-1,-1.205002069e-1,-5.114498734e-1,1.023908377e0
8.751985542e0,-4.764649272e-1,-2.823798954e-1,-3.963451385e-1,6.810629200e-1
8.762018542e0,4.901136830e-2,-2.404023558e-1,-1.949268281e-1,3.133558284e-1
8.772050542e0,1.569763571e-1,-3.719511628e-1,-6.139754653e-1,7.348163826e-1
8.782083542e0,2.435711771e-1,-4.570524693e-1,-7.373176217e-1,9.010333808e-1
8.792116542e0,3.134868145e-1,-4.192934632e-1,-6.115921736e-1,8.050627168e-1
8.802149542e0,4.090839028e-1,-3.973660469e-1,-5.100596547e-1,7.651210794e-1
8.812182542e0,4.537202716e-1,-4.079733491e-1,-3.826242983e-1,7.202122549e-1
8.822214542e0,4.079975188e-1,-4.830608964e-1,-2.401433140e-1,6.763716554e-1
8.832247542e0,2.466478646e-1,-6.370448470e-1,-1.474836320e-1,6.988653146e-1
8.842280542e0,9.285654873e-3,-8.088783622e-1,-7.126210630e-2,8.120644777e-1
8.852313542e0,-2.391518801e-1,-9.544461966e-1,1.785074826e-3,9.839534290e-1
8.862346542e0,-4.268871844e-1,-1.015695214e0,6.446550041e-2,1.103641807e0
8.872378542e0,-5.435035229e-1,-9.564129114e-1,1.274090558e-1,1.107409050e0
8.882411542e0,-6.528454423e-1,-8.617332578e-1,1.821980178e-1,1.096351904e0
8.892444542e0,-8.282294869e-1,-8.144842386e-1,2.392881662e-1,1.186004842e0
8.902477542e0,-1.015080094e0,-7.600457668e-1,2.707771063e-1,1.296679377e0
8.912510542e0,-1.190855384e0,-6.663672924e-1,2.896901667e-1,1.395027708e0
8.922542542e0,-1.346256256e0,-5.670764446e-1,2.892395854e-1,1.489174650e0
8.932575542e0,-1.453312755e0,-4.929220974e-1,2.824888527e-1,1.560413442e0
8.942608542e0,-1.467501760e0,-4.173192084e-1,3.042204976e-1,1.555720684e0
8.952641542e0,-1.397084951e0,-3.206263185e-1,3.118073344e-1,1.466925837e0
8.962674542e0,-1.309698462e0,-2.004940510e-1,2.780954540e-1,1.353826063e0
8.972706542e0,-1.250881195e0,-7.637136430e-2,2.149600685e-1,1.271512556e0
8.982739917e0,-1.242767572e0,-7.347091287e-2,1.685787290e-1,1.256299328e0
8.992772917e0,-1.267980337e0,-1.673613191e-1,1.470626146e-1,1.287404893e0
9.002805917e0,-1.331691861e0,-2.634950280e-1,1.328954101e-1,1.363999279e0
9.012838917e0,-1.378876209e0,-2.944440246e-1,1.336689442e-1,1.416285378e0
9.022870917e0,-1.341501355e0,-1.966644824e-1,1.344529837e-1,1.362490517e0
9.032903917e0,-1.215374589e0,-4.418655857e-2,9.932755679e-2,1.220226949e0
9.042936917e0,-1.053723454e0,8.375968784e-2,2.471750416e-2,1.057336162e0
9.052969917e0,-8.912254572e-1,1.928001791e-1,-6.491627544e-2,9.141492479e-1
9.063002917e0,-7.757790089e-1,2.839449942e-1,-1.272928268e-1,8.358596139e-1
9.073034917e0,-7.320674062e-1,3.470466137e-1,-1.590115428e-1,8.256201972e-1
9.083067917e0,-7.649574280e-1,4.004094303e-1,-1.641274691e-1,8.788773547e-1
9.093100917e0,-8.357595801e-1,4.670555294e-1,-1.485326290e-1,9.688637083e-1
9.103133917e0,-8.606196642e-1,5.236897469e-1,-1.100318506e-1,1.013422008e0
9.113166917e0,-8.351627588e-1,5.276147127e-1,-9.736261517e-2,9.926497860e-1
9.123198917e0,-7.724114656e-1,4.582601786e-1,-9.365443140e-2,9.029911495e-1
9.133231917e0,-7.073777318e-1,3.541081846e-1,-9.298380464e-2,7.965060262e-1
9.143264917e0,-6.556687355e-1,2.817743421e-1,-6.148872897e-2,7.162954239e-1
9.153297917e0,-6.775236130e-1,1.085479334e-1,-3.817883506e-2,6.872252349e-1
9.163330917e0,-7.577289939e-1,-9.446856380e-2,9.369774722e-3,7.636526242e-1
9.173362917e0,-8.162738085e-1,-1.600432545e-1,5.605268106e-2,8.337017913e-1
9.183395917e0,-7.980681658e-1,-1.462630033e-1,9.740518779e-2,8.171862909e-1
9.193428917e0,-7.171301842e-1,-1.611672044e-1,1.132075489e-1,7.436844209e-1
9.203461917e0,-6.124008298e-1,-1.497387886e-1,9.151290357e-2,6.370487365e-1
9.213494917e0,-5.021320581e-1,-1.130504161e-1,4.974650219e-2,5.170993279e-1
9.223526917e0,-4.141060710e-1,-1.789503396e-1,3.494278714e-2,4.524688502e-1
9.233559917e0,-2.853011787e-1,-5.518961325e-2,6.831941009e-2,2.985133125e-1
9.243592917e0,-1.702680439e-1,7.174695842e-3,1.021697894e-1,1.986991416e-1
9.253625917e0,-9.320923686e-2,-3.209933639e-2,1.075132638e-1,1.458678550e-1
9.263658917e0,-3.311181068e-2,-8.443897218e-2,7.853966951e-2,1.199783802e-1
9.273690917e0,-3.919194860e-4,-9.404566884e-2,4.088885710e-2,1.025506707e-1
9.283723917e0,-3.224457614e-3,-4.507519305e-2,2.615768928e-3,4.526601818e-2
9.293756917e0,-4.113044217e-2,2.027645335e-2,-3.941312060e-2,6.046686621e-2
9.303789917e0,-1.006086841e-1,7.113217562e-2,-8.049770445e-2,1.471793945e-1
9.313822917e0,-1.396274865e-1,1.099378541e-1,-1.102733165e-1,2.091467692e-1
9.323854917e0,-1.467626244e-1,1.696914583e-1,-1.258820891e-1,2.572562134e-1
9.333887917e0,-1.172983274e-1,2.138159871e-1,-1.164670810e-1,2.702605315e-1
9.343920917e0,-8.639261127e-2,8.978378028e-2,-1.181209087e-1,1.716897189e-1
9.353953917e0,-1.125835627e-1,-1.064392850e-1,-1.160765812e-1,1.935927496e-1
9.363986917e0,-1.313130260e-1,-1.219660491e-1,-9.199574590e-2,2.014498577e-1
9.374018917e0,-1.632235646e-1,-1.068036035e-1,-7.311233878e-2,2.083131197e-1
9.384051917e0,-1.975245476e-1,-9.935288131e-2,-4.560161382e-2,2.257575007e-1
9.394084917e0,-2.029290050e-1,-8.490379155e-2,-2.399706654e-2,2.212796739e-1
9.404117917e0,-1.679861993e-1,-1.281103939e-1,9.108955972e-3,2.114582920e-1
9.414150917e0,-1.364891231e-1,-1.547601670e-1,2.972123772e-2,2.084786368e-1
9.424183917e0,-1.115150601e-1,-1.398645788e-1,4.233716056e-2,1.838209569e-1
9.434215917e0,-9.006898850e-2,-1.118572205e-1,4.162511602e-2,1.495229439e-1
9.444248917e0,-6.675514579e-2,-9.865752608e-2,5.181863159e-2,1.299027618e-1
9.454281917e0,-1.516599394e-2,-2.986949869e-2,6.216132268e-2,7.061320246e-2
9.464314917e0,6.753181666e-2,1.160757244e-1,3.572066128e-2,1.389607343e-1
9.474347917e0,1.685189009e-1,1.225428656e-1,2.536920458e-2,2.099022877e-1
9.484379917e0,2.352103144e-1,9.320468456e-2,7.175818086e-3,2.531057044e-1
9.494412917e0,2.511555851e-1,8.940400928e-2,-1.160697918e-2,2.668462605e-1
9.504445917e0,2.290683985e-1,9.308556467e-2,-9.148082696e-3,2.474286583e-1
9.514478917e0,1.777540743e-1,4.996313155e-2,9.037313052e-3,1.848634590e-1
9.524511917e0,1.185999513e-1,-9.234856116e-4,2.732231095e-2,1.217099418e-1
9.534543917e0,7.754702121e-2,-1.970520616e-2,3.853674233e-2,8.880831131e-2
9.544576917e0,6.214542687e-2,-1.223934814e-3,2.819861844e-2,6.825477404e-2
9.554609917e0,7.170689106e-2,3.217367828e-2,2.903199056e-3,7.864764691e-2
9.564642917e0,1.017380282e-1,7.446014136e-2,-2.221520245e-2,1.280173983e-1
9.574675917e0,1.464144140e-1,8.373700082e-2,-4.483849183e-2,1.745266636e-1
9.584707917e0,1.937742084e-1,1.184534356e-1,-5.035549775e-2,2.326270328e-1
9.594740917e0,2.149723768e-1,1.280846745e-1,-5.703477934e-2,2.566549682e-1
9.604773917e0,1.959723234e-1,1.192174181e-1,-6.349427253e-2,2.380114850e-1
9.614806917e0,1.587096453e-1,1.231472790e-1,-6.441356987e-2,2.109576067e-1
9.624839917e0,1.120838150e-1,1.588243097e-1,-6.184016168e-2,2.039905599e-1
9.634871917e0,7.625589520e-2,1.884862185e-1,-6.618343294e-2,2.138276476e-1
9.644904917e0,5.247759074e-2,2.275755703e-1,-7.838470489e-2,2.463507656e-1
9.654937917e0,3.454466537e-2,2.918930352e-1,-8.061324060e-2,3.047841407e-1
9.664970917e0,1.890285686e-2,3.532948792e-1,-9.385554492e-2,3.660375021e-1
9.675003917e0,1.043995749e-2,4.093585312e-1,-8.488960564e-2,4.181980930e-1
9.685035917e0,1.650370844e-2,4.697712660e-1,-7.467851043e-2,4.759561898e-1
9.695068917e0,2.527043968e-2,5.012720227e-1,-1.031855270e-1,5.124055902e-1
9.705101917e0,2.449199744e-2,4.780775011e-1,-1.223064959e-1,4.940818089e-1
9.715134917e0,-1.649728417e-2,3.482869565e-1,-1.373532414e-1,3.747557570e-1
9.725167917e0,-3.405870125e-2,3.769353926e-1,-1.105844676e-1,3.942958405e-1
9.735199917e0,-1.987830177e-2,3.710958660e-1,-1.104850918e-1,3.877038098e-1
9.745232917e0,2.328062057e-2,3.243579268e-1,-1.214642376e-1,3.471363032e-1
9.755265917e0,6.251147389e-2,3.531327844e-1,-1.330070198e-1,3.824935491e-1
9.765298917e0,9.468192607e-2,3.219037652e-1,-1.519687176e-1,3.683492803e-1
9.775331917e0,2.940607257e-3,3.296620846e-1,-1.478676796e-1,3.613178488e-1
9.785363917e0,-1.295628399e-1,1.211525500e-1,-9.601991624e-2,2.017034808e-1
9.795396917e0,-1.832453012e-1,-1.311060488e-1,-4.909160733e-2,2.306027371e-1
9.805429917e0,-1.503488719e-1,-1.504171640e-1,-3.885468096e-2,2.161938777e-1
9.815462917e0,-4.574004933e-2,-7.222215831e-2,-5.370441452e-2,1.009572008e-1
9.825495917e0,6.424903870e-2,1.435055304e-2,-8.023242652e-2,1.037840046e-1
9.835527917e0,1.272512674e-1,6.029028445e-2,-9.499096870e-2,1.698560791e-1
9.845560917e0,8.634696901e-2,3.794077039e-2,-8.758738637e-2,1.287122813e-1
9.855593917e0,-4.831733927e-2,-4.271816835e-2,-5.915396661e-2,8.751342152e-2