"Time (s)","Gyroscope x (rad/s)","Gyroscope y (rad/s)","Gyroscope z (rad/s)","Absolute (rad/s)"
1.000958333e-2,-2.050365061e-1,-1.457255006e0,3.245212734e-1,1.506965885e0
2.004158334e-2,-2.271926850e-1,-1.254107118e0,1.774131507e-1,1.286808690e0
3.007458334e-2,-2.197094709e-1,-9.357594252e-1,-7.408645004e-2,9.640574441e-1
4.010758334e-2,-2.508291602e-1,-5.393792391e-1,-3.835203946e-1,7.077662921e-1
5.014058333e-2,-3.989696503e-1,-2.120919526e-1,-6.990245581e-1,8.323431450e-1
6.017358333e-2,-7.191569209e-1,-2.005750090e-1,-9.383859038e-1,1.199160171e0
7.020658334e-2,-1.036428571e0,-3.843235373e-1,-9.972284436e-1,1.488742198e0
8.023958334e-2,-1.282745600e0,-3.038315773e-1,-9.519796968e-1,1.626042817e0
9.027158334e-2,-1.529360414e0,-3.078337908e-1,-7.714439631e-1,1.740353615e0
1.003045833e-1,-1.801270485e0,-5.434736013e-1,-4.306142032e-1,1.930121112e0
1.103375833e-1,-2.026369333e0,-6.915155053e-1,6.002276205e-3,2.141121761e0
1.203705833e-1,-2.115668058e0,-6.141169667e-1,4.451757371e-1,2.247525844e0
1.304035833e-1,-2.050841570e0,-4.485253692e-1,8.293060660e-1,2.257182913e0
1.404365833e-1,-1.856954098e0,-3.614937067e-1,1.128528357e0,2.202846448e0
1.504695833e-1,-1.571181178e0,-3.809859157e-1,1.327998042e0,2.092209206e0
1.605025833e-1,-1.197000742e0,-3.049805164e-1,1.382423520e0,1.853892845e0
1.705345833e-1,-7.677489519e-1,-1.626989990e-1,1.268533707e0,1.491672612e0
1.805675833e-1,-3.295627236e-1,-7.401043922e-2,1.068109035e0,1.120243744e0
1.906005833e-1,7.662818581e-2,2.848336007e-4,8.855821490e-1,8.888912772e-1
2.006335833e-1,4.112676978e-1,-4.503635690e-3,7.341847420e-1,8.415394449e-1
2.106665833e-1,6.687226892e-1,-4.007955790e-1,4.993786216e-1,9.258542751e-1
2.206995833e-1,8.149725199e-1,-5.635075569e-1,2.891852260e-1,1.032157483e0
2.307325833e-1,7.196912169e-1,-8.115090728e-1,7.899365574e-2,1.087539618e0
2.407655833e-1,4.437968135e-1,-1.190384150e0,-9.341581166e-2,1.273851070e0
2.507975833e-1,1.261589378e-1,-1.388392329e0,-1.536043137e-1,1.402548973e0
2.608305833e-1,-2.557519972e-1,-1.406076312e0,-1.314461678e-1,1.435178656e0
2.708635833e-1,-6.563409567e-1,-1.258137703e0,-6.588180363e-2,1.420575356e0
2.808965833e-1,-1.031229973e0,-1.010042787e0,5.167910457e-2,1.444400366e0
2.909295833e-1,-1.342763543e0,-6.337990761e-1,1.234086901e-1,1.489947954e0
3.009625833e-1,-1.558173895e0,-1.709879488e-1,8.845680207e-2,1.570021456e0
3.109955833e-1,-1.658844352e0,2.364541292e-1,-1.295451075e-2,1.675661946e0
3.210275833e-1,-1.633974314e0,4.556228220e-1,-1.172231436e-1,1.700354516e0
3.310605833e-1,-1.511687279e0,4.910188913e-1,-1.641866565e-1,1.597890872e0
3.410935833e-1,-1.271255136e0,3.497996926e-1,-2.330910712e-1,1.338947681e0
3.511265833e-1,-9.500955939e-1,2.101192772e-1,-2.837798297e-1,1.013589039e0
3.611595833e-1,-6.083789468e-1,-5.892315879e-3,-2.744010985e-1,6.674246213e-1
3.711925833e-1,-2.888334394e-1,-3.136757016e-1,-2.148315161e-1,4.774618119e-1
3.812255833e-1,-1.878176071e-2,-6.922723651e-1,-1.452666819e-1,7.075988912e-1
3.912585833e-1,1.351558715e-1,-1.145388961e0,-1.050249860e-1,1.158107607e0
4.012905833e-1,2.491915226e-1,-1.429431200e0,-7.889673859e-2,1.453132708e0
4.113235833e-1,4.144909978e-1,-1.362970710e0,-3.352552652e-2,1.424996808e0
4.213565833e-1,5.360338688e-1,-1.148859859e0,3.547930717e-2,1.268254732e0
4.313895833e-1,5.779562593e-1,-8.246556520e-1,1.855484247e-1,1.023971972e0
4.414225833e-1,5.053680539e-1,-8.058362603e-1,3.469436467e-1,1.012491404e0
4.514555833e-1,3.403950334e-1,-1.154940724e0,4.542732835e-1,1.286903676e0
4.614885833e-1,1.214743033e-1,-1.607924223e0,4.752309322e-1,1.681077259e0
4.715205833e-1,-9.860320389e-2,-1.865431905e0,3.967736661e-1,1.909708911e0
4.815535833e-1,-2.957762480e-1,-1.858975172e0,2.924028933e-1,1.904933524e0
4.915865833e-1,-4.320723116e-1,-1.637557268e0,1.747433841e-1,1.702590831e0
5.016195833e-1,-5.284677744e-1,-1.253754497e0,2.943650819e-2,1.360898613e0
5.116525833e-1,-5.985137224e-1,-8.404258490e-1,-1.459134817e-1,1.042029284e0
5.216855833e-1,-6.597779989e-1,-4.148774743e-1,-3.005470932e-1,8.353196285e-1
5.317185833e-1,-7.362666726e-1,-4.561795667e-2,-3.309172690e-1,8.085022264e-1
5.417515833e-1,-7.813096642e-1,3.030921221e-1,-2.975866199e-1,8.893072710e-1
5.517835833e-1,-7.990508080e-1,6.634932160e-1,-2.183165550e-1,1.061304650e0
5.618165833e-1,-7.938430309e-1,1.021396518e0,-1.178853810e-1,1.298974429e0
5.718495833e-1,-7.644785047e-1,1.390761852e0,-3.399448097e-2,1.587388276e0
5.818825833e-1,-7.246893048e-1,1.702291846e0,1.890059747e-2,1.850224135e0
5.919155833e-1,-6.807367802e-1,1.858981609e0,5.377389118e-2,1.980430968e0
6.019485833e-1,-6.435661316e-1,1.789603114e0,9.274438024e-2,1.904063600e0
6.119815833e-1,-5.371403694e-1,1.467063427e0,1.243486404e-1,1.567245182e0
6.220135833e-1,-3.358084559e-1,1.093555689e0,7.860197872e-2,1.146651488e0
6.320465833e-1,-6.545578688e-2,6.163164377e-1,2.198184654e-2,6.201722446e-1
6.420795833e-1,1.873109043e-1,2.301442474e-1,3.766098060e-3,2.967590487e-1
6.521125833e-1,2.795769274e-1,-1.133415010e-2,7.349005342e-2,2.892965766e-1
6.621455833e-1,2.879783213e-1,-1.994236857e-1,1.735459864e-1,3.909213851e-1
6.721785833e-1,2.019699067e-1,-3.658869565e-1,2.962021232e-1,5.122507256e-1
6.822115833e-1,5.465538055e-2,-5.068466067e-1,3.947314322e-1,6.447430472e-1
6.922445833e-1,-9.819221497e-2,-6.161177158e-1,4.060021937e-1,7.443658591e-1
7.022765833e-1,-1.936424524e-1,-6.548655629e-1,3.202149272e-1,7.542439290e-1
7.123095833e-1,-1.805410236e-1,-6.864389181e-1,1.861130148e-1,7.337789202e-1
7.223425833e-1,-4.115713015e-2,-7.008607388e-1,6.594164670e-2,7.051581278e-1
7.323755833e-1,1.609168798e-1,-6.650388241e-1,-6.425790489e-2,6.872408297e-1
7.424085833e-1,3.779700994e-1,-6.542173624e-1,-3.141268194e-1,8.182526578e-1
7.524415833e-1,5.588480234e-1,-3.520617783e-1,-5.580486655e-1,8.646831339e-1
7.624745833e-1,6.452772021e-1,-9.608469903e-2,-8.546876311e-1,1.075223644e0
7.725065833e-1,6.151691079e-1,1.202009916e-1,-1.015349269e0,1.193237381e0
7.825395833e-1,4.875048697e-1,4.435850382e-1,-9.037938118e-1,1.118602672e0
7.925725833e-1,2.557155788e-1,1.073538780e0,-4.419494867e-1,1.188778919e0
8.026055833e-1,1.288367435e-3,1.315398932e0,-1.371549219e-1,1.322530711e0
8.126385833e-1,-2.149163634e-1,1.073983908e0,-9.106439352e-2,1.099055595e0
8.226715833e-1,-3.716404140e-1,8.479645848e-1,-8.010310680e-2,9.292884601e-1
8.327045833e-1,-4.767002463e-1,7.065033317e-1,-2.432053164e-2,8.526321427e-1
8.427375833e-1,-5.918673277e-1,5.828169584e-1,8.974196389e-3,8.307003532e-1
8.527695833e-1,-6.990840435e-1,2.873528302e-1,-7.214222848e-2,7.592724478e-1
8.628025833e-1,-7.774574757e-1,-5.539644510e-2,-1.429754198e-1,7.924335071e-1
8.728355833e-1,-8.097288609e-1,-3.787036836e-1,-1.372051537e-1,9.043796561e-1
8.828685833e-1,-7.688698769e-1,-5.755430460e-1,-1.192199066e-1,9.677934033e-1
8.929019583e-1,-6.483815312e-1,-5.698713064e-1,-1.280155182e-1,8.726625286e-1
9.029349583e-1,-4.431022406e-1,-4.842281938e-1,-1.521686018e-1,6.737743113e-1
9.129679583e-1,-1.910596043e-1,-3.929430246e-1,-2.032126188e-1,4.818748400e-1
9.229999583e-1,6.511158496e-2,-2.668928504e-1,-2.940718830e-1,4.024296018e-1
9.330329583e-1,2.864687443e-1,-1.447357982e-1,-4.094046056e-1,5.202162280e-1
9.430659583e-1,4.551872313e-1,-8.724906482e-3,-4.458955526e-1,6.372553518e-1
9.530989583e-1,5.813272595e-1,1.295850277e-1,-3.791636825e-1,7.060444463e-1
9.631319583e-1,6.627082229e-1,1.853016615e-1,-2.386658192e-1,7.283407634e-1
9.731649583e-1,6.875373721e-1,2.833576500e-1,-7.625798881e-2,7.475389466e-1
9.831979583e-1,6.417270303e-1,4.374714494e-1,8.057726175e-2,7.808249135e-1
9.932309583e-1,5.275200605e-1,6.047153473e-1,2.271403372e-1,8.339968815e-1
1.003262958e0,3.686761856e-1,7.239325643e-1,3.467064798e-1,8.832926302e-1
1.013295958e0,1.760425717e-1,6.778558493e-1,4.225112200e-1,8.179213107e-1
1.023328958e0,-5.217276141e-2,4.857898057e-1,4.082846045e-1,6.367181878e-1
1.033361958e0,-2.621752620e-1,2.620733380e-1,2.734173536e-1,4.606249578e-1
1.043394958e0,-4.258729219e-1,1.011797786e-1,8.997915685e-2,4.468795608e-1
1.053427958e0,-5.528287292e-1,8.709165454e-2,5.997169763e-3,5.596789491e-1
1.063460958e0,-6.646238565e-1,2.558343709e-1,4.627651721e-2,7.136649158e-1
1.073492958e0,-7.781938314e-1,3.905391693e-1,1.188378036e-1,8.787655578e-1
1.083525958e0,-8.838351965e-1,3.979375660e-1,1.736790240e-1,9.847250197e-1
1.093558958e0,-9.474567771e-1,3.492698967e-1,2.088726908e-1,1.031160320e0
1.103591958e0,-9.445446134e-1,3.946117759e-1,2.544252574e-1,1.054805760e0
1.113624958e0,-8.755967021e-1,5.021563172e-1,3.060626090e-1,1.054753465e0
1.123657958e0,-7.499619126e-1,6.382339001e-1,3.240764439e-1,1.036730883e0
1.133690958e0,-5.841220617e-1,6.275778413e-1,2.910921276e-1,9.054209831e-1
1.143722958e0,-4.031221867e-1,4.121150374e-1,2.240033746e-1,6.184850954e-1
1.153755958e0,-2.173296809e-1,1.466293037e-1,1.218543649e-1,2.891034921e-1
1.163788958e0,-4.148450494e-2,-3.817758337e-2,-2.087388420e-3,5.641674585e-2
1.173821958e0,1.217156053e-1,-1.346300840e-1,-1.332464814e-1,2.251545534e-1
1.183854958e0,2.581204176e-1,-2.587575614e-1,-2.238460332e-1,4.285891648e-1
1.193887958e0,3.757815361e-1,-4.175527990e-1,-2.250146270e-1,6.051393932e-1
1.203920958e0,4.880199134e-1,-4.842500091e-1,-1.561056525e-1,7.050038879e-1
1.213952958e0,5.992844105e-1,-4.253768623e-1,-1.081471741e-1,7.428210356e-1
1.223985958e0,6.968990564e-1,-3.622839451e-1,-1.486784965e-1,7.993892963e-1
1.234018958e0,7.665239573e-1,-9.325489402e-2,-1.601955891e-1,7.886178283e-1
1.244051958e0,7.206175327e-1,4.050547481e-1,-1.215332597e-1,8.355413279e-1
1.254084958e0,4.832148254e-1,8.360806704e-1,-2.543255500e-2,9.660094563e-1
1.264117958e0,2.533515096e-1,8.335822225e-1,5.627019331e-2,8.730479046e-1
1.274150958e0,-7.108853199e-3,7.681097388e-1,1.709946394e-1,7.869448986e-1
1.284183958e0,-2.187392414e-1,6.951297522e-1,2.443873435e-1,7.686204536e-1
1.294215958e0,-3.477984369e-1,6.214289069e-1,2.243622243e-1,7.466431857e-1
1.304248958e0,-3.866666555e-1,5.171985626e-1,1.112844422e-1,6.552783247e-1
1.314281958e0,-3.658535182e-1,6.199079156e-1,3.271346912e-2,7.205586664e-1
1.324314958e0,-3.249541223e-1,6.386611462e-1,-4.222098738e-2,7.178202094e-1
1.334347958e0,-2.743678987e-1,4.644166529e-1,-1.193706319e-1,5.524580700e-1
1.344380958e0,-2.129292637e-1,2.750183344e-1,-1.658176780e-1,3.853173470e-1
1.354413958e0,-1.231695488e-1,1.375558227e-1,-1.538193375e-1,2.403179783e-1
1.364445958e0,-1.381797995e-2,8.532609046e-2,-1.618300229e-1,1.834678026e-1
1.374478958e0,1.085446849e-1,9.232700616e-2,-2.192464471e-1,2.614865757e-1
1.384511958e0,2.466290295e-1,1.348231137e-1,-2.650273144e-1,3.863193337e-1
1.394544958e0,3.733970821e-1,1.428655833e-1,-2.606029809e-1,4.772314632e-1
1.404577958e0,4.780301452e-1,1.045494825e-1,-2.089802325e-1,5.320866015e-1
1.414610958e0,5.602467656e-1,1.778050140e-2,-1.236584038e-1,5.740069559e-1
1.424643958e0,6.096771955e-1,-9.077408165e-2,-4.016987234e-2,6.177052981e-1
1.434675958e0,6.331889033e-1,-1.870350987e-1,1.798105054e-2,6.604798510e-1
1.444708958e0,6.470327377e-1,-2.554120421e-1,3.974428773e-2,6.967541054e-1
1.454741958e0,6.699241996e-1,-2.885329723e-1,2.622129023e-2,7.298885294e-1
1.464774958e0,7.060562372e-1,-1.267898530e-1,6.592079997e-2,7.203725625e-1
1.474807958e0,7.439112067e-1,3.240326047e-2,1.114174426e-1,7.529061703e-1
1.484840958e0,7.654630542e-1,-1.203225343e-3,1.051479653e-1,7.726520754e-1
1.494873958e0,7.398277521e-1,-1.978715509e-1,5.970697477e-2,7.681556980e-1
1.504905958e0,6.639232635e-1,-2.855204344e-1,5.433042720e-2,7.247536227e-1
1.514938958e0,5.427781940e-1,-4.117691815e-1,6.712212414e-2,6.845928762e-1
1.524971958e0,4.106986523e-1,-4.893840253e-1,7.672024518e-2,6.434719133e-1
1.535004958e0,2.750052512e-1,-4.964565933e-1,8.061858267e-2,5.732332798e-1
1.545037958e0,1.755812466e-1,-4.032028317e-1,7.996689528e-2,4.469854606e-1
1.555070958e0,9.947156161e-2,-2.681803107e-1,8.569668978e-2,2.985953671e-1
1.565103958e0,2.975989878e-2,-1.970659643e-1,9.002296627e-2,2.186887750e-1
1.575135958e0,-4.896553978e-2,-2.466987669e-1,4.398889095e-2,2.553290587e-1
1.585168958e0,-1.160445809e-1,-2.597279549e-1,1.231490821e-2,2.847395516e-1
1.595201958e0,-1.650864333e-1,-2.802590430e-1,-1.200507861e-2,3.254885306e-1
1.605234958e0,-1.835556626e-1,-3.617806435e-1,-7.082282752e-2,4.118176637e-1
1.615267958e0,-1.666885316e-1,-3.753249347e-1,-1.301593930e-1,4.308077771e-1
1.625300958e0,-1.095805466e-1,-3.433950245e-1,-1.970725060e-1,4.108109196e-1
1.635333958e0,-3.791967407e-2,-2.579552233e-1,-2.522929013e-1,3.628091881e-1
1.645365958e0,1.532877330e-2,-1.465690508e-2,-1.659764349e-1,1.673259487e-1
1.655398958e0,4.988994822e-2,1.168944612e-1,-3.043969162e-3,1.271321664e-1
1.665431958e0,8.318113536e-2,-1.484783739e-2,1.107610762e-1,1.393110748e-1
1.675464958e0,1.220371872e-1,-2.349631637e-1,1.643947363e-1,3.116510752e-1
1.685497958e0,1.671915948e-1,-3.731971681e-1,1.700959951e-1,4.429015728e-1
1.695530958e0,2.011397034e-1,-3.862216175e-1,1.303914487e-1,4.545615998e-1
1.705563958e0,2.179787755e-1,-3.175525069e-1,-2.025952563e-3,3.851732671e-1
1.715595958e0,2.229477018e-1,-1.721772105e-1,-8.839918673e-2,2.952373380e-1
1.725628958e0,2.047847509e-1,-3.006334975e-2,-8.702331781e-2,2.245298578e-1
1.735661958e0,1.631696671e-1,5.659244955e-2,-4.392751306e-2,1.782040180e-1
1.745694958e0,1.027066186e-1,8.900655061e-2,2.349225804e-3,1.359276808e-1
1.755727958e0,2.433378436e-2,5.199259892e-2,3.721373156e-2,6.841217158e-2
1.765760958e0,-8.293593675e-2,-3.535311297e-2,5.730530992e-2,1.068274812e-1
1.775793958e0,-2.128726393e-1,-1.642242819e-1,6.695207953e-2,2.770685047e-1
1.785825958e0,-3.448418677e-1,-2.699801028e-1,7.557310164e-2,4.444282431e-1
1.795858958e0,-4.609029591e-1,-2.696272433e-1,8.930942416e-2,5.413931670e-1
1.805891958e0,-5.700007081e-1,-2.281724364e-1,1.027210504e-1,6.225070940e-1
1.815924958e0,-6.705867052e-1,-2.030971795e-1,1.375991404e-1,7.140507804e-1
1.825957958e0,-7.580167651e-1,-1.880816519e-1,2.061824352e-1,8.077594447e-1
1.835990958e0,-8.233475685e-1,-2.462365627e-1,2.684159875e-1,9.003226120e-1
1.846023958e0,-8.712295890e-1,-4.040163159e-1,3.180756867e-1,1.011653262e0
1.856056958e0,-8.960382938e-1,-5.133199692e-1,3.654130995e-1,1.095403464e0
1.866088958e0,-8.953912854e-1,-4.979547262e-1,4.143847525e-1,1.105169302e0
1.876121958e0,-8.607291579e-1,-4.281034768e-1,4.216767550e-1,1.049732612e0
1.886154958e0,-7.952048182e-1,-3.405742347e-1,3.882133961e-1,9.481830800e-1
1.896187750e0,-7.092930675e-1,-2.743334472e-1,3.034636378e-1,8.188074714e-1
1.906220750e0,-6.270456314e-1,-2.485661805e-1,2.101853192e-1,7.065049457e-1
1.916253750e0,-5.648315549e-1,-2.427844554e-1,1.491264999e-1,6.326276078e-1
1.926285750e0,-5.439026952e-1,-2.795981169e-1,1.463664919e-1,6.288309779e-1
1.936318750e0,-5.680706501e-1,-2.712315321e-1,2.191815823e-1,6.665668560e-1
1.946351750e0,-6.244286299e-1,-1.455634236e-1,3.296215832e-1,7.209370376e-1
1.956384750e0,-7.105419040e-1,6.009838730e-2,3.974629641e-1,8.163690472e-1
1.966417750e0,-8.336131573e-1,3.320076168e-1,3.717587888e-1,9.712592603e-1
1.976450750e0,-9.760142565e-1,5.655330420e-1,2.934069932e-1,1.165555281e0
1.986483750e0,-1.136276245e0,6.460126042e-1,2.085802108e-1,1.323616899e0
1.996515750e0,-1.307543874e0,5.545423627e-1,1.476358920e-1,1.427930170e0
2.006548750e0,-1.480925798e0,3.684893250e-1,1.219251528e-1,1.530944593e0
2.016581750e0,-1.627154350e0,2.258562744e-1,1.010563597e-1,1.645859874e0
2.026614750e0,-1.743312120e0,1.439210027e-1,6.967852265e-2,1.750630030e0
2.036647750e0,-1.849660873e0,1.458864063e-1,4.714364558e-2,1.856003964e0
2.046680750e0,-1.947230220e0,3.021064401e-1,1.903624646e-2,1.970618230e0
2.056713750e0,-2.040566683e0,4.317872226e-1,-4.119034111e-2,2.086156571e0
2.066745750e0,-2.104104042e0,4.128950536e-1,-1.007881314e-1,2.146600660e0
2.076778750e0,-2.108759403e0,2.998188138e-1,-1.350241303e-1,2.134242034e0
2.086811750e0,-2.026764393e0,1.566360295e-1,-1.887861043e-1,2.041555520e0
2.096844750e0,-1.863407373e0,6.032786891e-2,-2.728948593e-1,1.884250009e0
2.106877750e0,-1.627209187e0,4.590486363e-2,-3.420552015e-1,1.663405770e0
2.116910750e0,-1.358630419e0,1.047721729e-1,-3.216548562e-1,1.400112735e0
2.126943750e0,-1.098404765e0,2.065007389e-1,-1.979892403e-1,1.135048599e0
2.136975750e0,-8.627421260e-1,2.581937611e-1,-3.101808764e-2,9.010827465e-1
2.147008750e0,-6.619716883e-1,1.505444646e-1,1.125189513e-1,6.881356453e-1
2.157041750e0,-4.680538774e-1,-9.819345921e-2,1.899271905e-1,5.145762579e-1
2.167074750e0,-2.429786325e-1,-4.587925971e-1,1.909600943e-1,5.531681666e-1
2.177107750e0,6.044597831e-4,-8.144140840e-1,1.533522755e-1,8.287264844e-1
2.187140750e0,2.915186584e-1,-9.828492403e-1,9.641817957e-2,1.029695209e0
2.197173750e0,5.975451469e-1,-9.253308773e-1,2.623615414e-2,1.101810225e0
2.207205750e0,8.871414661e-1,-7.486019135e-1,-4.244823009e-2,1.161562163e0
2.217238750e0,1.142609239e0,-5.832121968e-1,-8.632993698e-2,1.285746941e0
2.227271750e0,1.360629678e0,-5.529562831e-1,-1.185375899e-1,1.473473763e0
2.237304750e0,1.578631759e0,-6.750433445e-1,-1.927212775e-1,1.727687251e0
2.247337750e0,1.813594222e0,-8.850634098e-1,-2.916536927e-1,2.039000519e0
2.257370750e0,2.083914995e0,-9.852153063e-1,-3.710273504e-1,2.334740286e0
2.267403750e0,2.383639097e0,-8.728222847e-1,-3.836080432e-1,2.567237663e0
2.277435750e0,2.687718391e0,-6.355383396e-1,-2.897310853e-1,2.776991760e0
2.287468750e0,3.015482903e0,-3.674589694e-1,-1.283065826e-1,3.040497625e0
2.297501750e0,3.440614462e0,-8.765740693e-2,1.765036397e-2,3.441776174e0
2.307534750e0,3.996883631e0,4.797605798e-2,1.278072298e-1,3.999214316e0
2.317567750e0,4.690426826e0,-1.393125206e-2,2.012654692e-1,4.694763645e0
2.327600750e0,5.543365002e0,-1.994250119e-1,2.624587417e-1,5.553156802e0
2.337633750e0,6.582468510e0,-5.102707744e-1,3.406808376e-1,6.611000785e0
2.347665750e0,7.824960232e0,-9.828896523e-1,5.160451531e-1,7.903314324e0
2.357698750e0,9.277216911e0,-1.675785303e0,8.042783141e-1,9.461599950e0
2.367731750e0,1.096781826e1,-2.574836493e0,1.106826425e0,1.132024227e1
2.377764750e0,1.286051655e1,-3.121016741e0,1.113831878e0,1.328059686e1
2.387797750e0,1.474509430e1,-3.781537056e0,7.163466811e-1,1.523912665e1
2.397830750e0,1.656922340e1,-4.840113163e0,-2.433902621e-1,1.726340344e1
2.407863750e0,1.780169487e1,-6.884168148e0,-1.337330699e0,1.913323195e1
2.417895750e0,1.803846359e1,-7.606423855e0,-2.185414791e0,1.969822049e1
2.427928750e0,1.782265663e1,-8.024099350e0,-2.962191582e0,1.976886033e1
2.437961750e0,1.753345680e1,-8.570228577e0,-3.775064945e0,1.987767694e1
2.447994750e0,1.715221786e1,-9.249519348e0,-4.635890007e0,2.003106742e1
2.458027750e0,1.665552330e1,-1.004888344e1,-5.549776077e0,2.022835953e1
2.468060750e0,1.600996399e1,-1.096343517e1,-6.514528275e0,2.046838871e1
2.478093750e0,1.519296169e1,-1.196938133e1,-7.525175095e0,2.075380531e1
2.488125750e0,1.416835785e1,-1.304456711e1,-8.565004349e0,2.107753294e1
2.498158750e0,1.291034794e1,-1.415910912e1,-9.618676186e0,2.144006498e1
2.508191750e0,1.139504528e1,-1.527662086e1,-1.064757729e1,2.183101244e1
2.518224750e0,9.609843254e0,-1.633892632e1,-1.160686684e1,2.222676221e1
2.528257750e0,7.556446552e0,-1.728162766e1,-1.245377731e1,2.260201558e1
2.538290750e0,5.262532234e0,-1.802733040e1,-1.312800980e1,2.291339189e1
2.548322750e0,2.786581993e0,-1.852499008e1,-1.357861996e1,2.313696645e1
2.558355750e0,2.023235708e-1,-1.870951080e1,-1.376990986e1,2.323138280e1
2.568388750e0,-2.391500473e0,-1.856110573e1,-1.368626118e1,2.318507419e1
2.578421750e0,-4.897588253e0,-1.808495903e1,-1.333259773e1,2.299587520e1
2.588454750e0,-7.229003429e0,-1.731966019e1,-1.274327278e1,2.268524015e1
2.598487750e0,-9.327830315e0,-1.633057976e1,-1.196646500e1,2.229108652e1
2.608520750e0,-1.116143131e1,-1.519572449e1,-1.105072975e1,2.185420371e1
2.618553750e0,-1.271442127e1,-1.398015594e1,-1.005298519e1,2.140476068e1
2.628585750e0,-1.400309467e1,-1.275274944e1,-9.028167725e0,2.098158934e1
2.638618750e0,-1.504641628e1,-1.155581951e1,-8.007621765e0,2.059256210e1
2.648651750e0,-1.588162231e1,-1.043113518e1,-7.023489475e0,2.025744093e1
2.658684750e0,-1.653374290e1,-9.399553299e0,-6.084222794e0,1.996832551e1
2.668717750e0,-1.703921890e1,-8.475481987e0,-5.205013275e0,1.972969688e1
2.678750750e0,-1.742504120e1,-7.671422958e0,-4.377205372e0,1.953567808e1
2.688782750e0,-1.771680450e1,-6.982320786e0,-3.611889362e0,1.938256201e1
2.698815750e0,-1.793463516e1,-6.410455704e0,-2.896984577e0,1.926493188e1
2.708848750e0,-1.808471680e1,-5.950971127e0,-2.225731611e0,1.916833118e1
2.718881750e0,-1.819067955e1,-5.601225376e0,-1.593323350e0,1.910008449e1
2.728914750e0,-1.825710487e1,-5.360431194e0,-9.840901494e-1,1.905320273e1
2.738947750e0,-1.829025650e1,-5.224164963e0,-3.938023448e-1,1.902578415e1
2.748980750e0,-1.828426933e1,-5.182638645e0,1.882068366e-1,1.900551684e1
2.759012750e0,-1.824902344e1,-5.246183872e0,7.731959820e-1,1.900387154e1
2.769045750e0,-1.818079376e1,-5.411315441e0,1.368322253e0,1.901830440e1
2.779078750e0,-1.807677650e1,-5.672296524e0,1.980783463e0,1.904910234e1
2.789111750e0,-1.792980385e1,-6.038039684e0,2.622116327e0,1.910003359e1
2.799144750e0,-1.773142815e1,-6.512477875e0,3.299231291e0,1.917552709e1
2.809177750e0,-1.747406769e1,-7.095372677e0,4.017966270e0,1.928293048e1
2.819210750e0,-1.713492966e1,-7.795168877e0,4.793271065e0,1.942539368e1
2.829242750e0,-1.669573021e1,-8.601469994e0,5.618079185e0,1.960345651e1
2.839275750e0,-1.613670349e1,-9.518516541e0,6.500340939e0,1.983052670e1
2.849308750e0,-1.542945004e1,-1.053334808e1,7.430141449e0,2.010538117e1
2.859341750e0,-1.454541874e1,-1.163238335e1,8.406775475e0,2.043417291e1
2.869374750e0,-1.344103241e1,-1.278871632e1,9.400712013e0,2.079870197e1
2.879407750e0,-1.209786987e1,-1.395276833e1,1.038946247e1,2.118912763e1
2.889440750e0,-1.050282478e1,-1.506744099e1,1.132903671e1,2.157971685e1
2.899472458e0,-8.646093369e0,-1.608277893e1,1.217402649e1,2.194578843e1
2.909505458e0,-6.553578377e0,-1.693443489e1,1.287214661e1,2.225795662e1
2.919538458e0,-4.258808136e0,-1.756572723e1,1.337792683e1,2.248691055e1
2.929571458e0,-1.838083386e0,-1.792600060e1,1.365126419e1,2.260701355e1
2.939604458e0,6.431169510e-1,-1.799947357e1,1.367117119e1,2.261184579e1
2.949637458e0,3.083125353e0,-1.777139282e1,1.343299007e1,2.248940389e1
2.959670458e0,5.404699802e0,-1.726974297e1,1.296277714e1,2.225956858e1
2.969702458e0,7.537345409e0,-1.653274345e1,1.229065800e1,2.193635011e1
2.979735458e0,9.427938461e0,-1.561645794e1,1.147017384e1,2.154819412e1
2.989768458e0,1.106390572e1,-1.457746887e1,1.055067539e1,2.112414163e1
2.999801458e0,1.244536114e1,-1.347845078e1,9.583744049e0,2.069791775e1
3.009834458e0,1.358994293e1,-1.236514950e1,8.603916168e0,2.028819471e1
3.019867458e0,1.453350735e1,-1.128501129e1,7.642324924e0,1.992434305e1
3.029900458e0,1.528654385e1,-1.026919270e1,6.724006176e0,1.960476984e1
3.039932458e0,1.589439201e1,-9.342280388e0,5.853065014e0,1.934342964e1
3.049965458e0,1.637704086e1,-8.520333290e0,5.039363861e0,1.913631979e1
3.059998458e0,1.676054001e1,-7.810834885e0,4.282621861e0,1.898066629e1
3.070031458e0,1.705615234e1,-7.200712681e0,3.578136206e0,1.885644862e1
3.080064458e0,1.728318977e1,-6.687092304e0,2.922880650e0,1.876083909e1
3.090097458e0,1.745388222e1,-6.281044483e0,2.305680752e0,1.869239653e1
3.100129458e0,1.757250404e1,-5.970504761e0,1.720068812e0,1.863862823e1
3.110162458e0,1.764930153e1,-5.730837822e0,1.157182455e0,1.859245594e1
3.120195458e0,1.768402100e1,-5.575064182e0,6.157746315e-1,1.855222676e1
3.130228458e0,1.768453217e1,-5.491164207e0,8.635405451e-2,1.851764076e1
3.140261458e0,1.763721085e1,-5.487993240e0,-4.402426481e-1,1.847655514e1
3.150294458e0,1.755535698e1,-5.566143036e0,-9.636617303e-1,1.844183155e1
3.160327458e0,1.743957520e1,-5.738403797e0,-1.496990323e0,1.842034313e1
3.170359458e0,1.729792786e1,-6.005978584e0,-2.050483942e0,1.842537846e1
3.180392458e0,1.712566948e1,-6.374408245e0,-2.628497362e0,1.846159890e1
3.190425458e0,1.691865540e1,-6.842500687e0,-3.244059563e0,1.853603621e1
3.200458458e0,1.666546059e1,-7.405176163e0,-3.903481483e0,1.864970183e1
3.210491458e0,1.634572983e1,-8.083026886e0,-4.609707355e0,1.880871099e1
3.220524458e0,1.594230843e1,-8.859031677e0,-5.368292332e0,1.901205414e1
3.230557458e0,1.544119740e1,-9.718426704e0,-6.183613777e0,1.926435761e1
3.240589458e0,1.480445004e1,-1.062598419e1,-7.046303749e0,1.953800597e1
3.250622458e0,1.401080132e1,-1.156545258e1,-7.955864429e0,1.983325555e1
3.260655458e0,1.302765369e1,-1.248803139e1,-8.887342453e0,2.011605191e1
3.270688458e0,1.184060287e1,-1.337301826e1,-9.812782288e0,2.037960231e1
3.280721458e0,1.043208027e1,-1.423724461e1,-1.070379543e1,2.064215758e1
3.290754458e0,8.791842461e0,-1.506750870e1,-1.152713490e1,2.090935559e1
3.300787458e0,6.941569328e0,-1.580548859e1,-1.223220825e1,2.115716836e1
3.310819458e0,4.903512478e0,-1.642191124e1,-1.279720497e1,2.138906399e1
3.320852458e0,2.712424517e0,-1.687478447e1,-1.317920303e1,2.158256218e1
3.330885458e0,4.331747293e-1,-1.712662697e1,-1.335457420e1,2.172219243e1
3.340918458e0,-1.846414208e0,-1.714772606e1,-1.330661869e1,2.178347666e1
3.350951458e0,-4.047202587e0,-1.693606377e1,-1.303376961e1,2.175061505e1
3.360984458e0,-6.103383541e0,-1.648064613e1,-1.256281471e1,2.160294658e1
3.371016458e0,-6.075610161e0,-1.573082829e1,-9.516302109e0,1.936316098e1
3.381049458e0,-1.938301474e-1,-1.068873692e1,-3.674999714e0,1.130452519e1
3.391082458e0,1.881634140e1,-1.236866570e1,-2.977676868e0,2.271354561e1
3.401115458e0,3.017301559e1,-2.498992205e0,-2.202341318e0,3.035631960e1
3.411148458e0,2.490315437e1,-4.462310791e0,-2.459004879e0,2.541900904e1
3.421181458e0,1.011816502e1,-5.423617363e0,1.904009700e0,1.163693007e1
3.431214458e0,5.153323174e0,-3.029226303e0,2.825892448e0,6.612005736e0
3.441246458e0,3.874686956e0,2.136005878e0,1.152585506e0,4.572108209e0
3.451279458e0,3.363388777e0,7.640492439e0,5.926412344e-1,8.369034138e0
3.461312458e0,2.714725733e0,9.623907089e0,4.363048971e-1,1.000898024e1
3.471345458e0,2.113966465e0,9.229593277e0,9.305228591e-1,9.514206171e0
3.481378458e0,1.373386502e0,8.046860695e0,1.211760640e0,8.252667531e0
3.491411458e0,7.970923781e-1,7.627492428e0,1.127657652e0,7.751490745e0
3.501443458e0,6.620829105e-1,7.174224377e0,9.655760527e-1,7.269125553e0
3.511476458e0,6.091192365e-1,7.065426826e0,9.181765318e-1,7.150827269e0
3.521509458e0,5.374945998e-1,7.053236961e0,9.364621043e-1,7.135405619e0
3.531542458e0,4.662288129e-1,7.044068336e0,9.509055018e-1,7.123235873e0
3.541575458e0,3.950265348e-1,7.032525063e0,9.616848826e-1,7.108958611e0
3.551608458e0,3.184013367e-1,7.021585941e0,9.740822315e-1,7.095976658e0
3.561641458e0,2.461785376e-1,7.013200283e0,9.771898985e-1,7.085229861e0
3.571673458e0,1.685179174e-1,7.008612156e0,9.788236022e-1,7.078639579e0
3.581706458e0,9.535848349e-2,7.002695560e0,9.826162457e-1,7.071942664e0
3.591739458e0,1.973908395e-2,7.000408649e0,9.774041772e-1,7.068339962e0
3.601772458e0,-5.141977966e-2,6.995179176e0,9.717177749e-1,7.062535744e0
3.611805458e0,-1.205072328e-1,6.991609097e0,9.628492594e-1,7.058625819e0
3.621838458e0,-1.883483380e-1,6.989572048e0,9.523553252e-1,7.056668703e0
3.631870458e0,-2.582622468e-1,6.984885216e0,9.377908707e-1,7.052288464e0
3.641903458e0,-3.263390362e-1,6.980300903e0,9.201207757e-1,7.048242342e0
3.651936458e0,-3.902341127e-1,6.973782539e0,9.020555019e-1,7.042700455e0
3.661969458e0,-4.601567388e-1,6.966329575e0,8.768050075e-1,7.036354098e0
3.672002458e0,-5.239846110e-1,6.959647655e0,8.532789350e-1,7.031311421e0
3.682035458e0,-5.849888325e-1,6.950916767e0,8.257506490e-1,7.024195326e0
3.692068458e0,-6.457051039e-1,6.940987587e0,7.973451614e-1,7.016409557e0
3.702100458e0,-7.036648393e-1,6.932331085e0,7.638164759e-1,7.009691440e0
3.712133458e0,-7.559494972e-1,6.926747322e0,7.283267975e-1,7.005836712e0
3.722166458e0,-8.056288958e-1,6.924949646e0,6.939136982e-1,7.006103178e0
3.732199458e0,-8.254902959e-1,6.967077732e0,5.835471749e-1,7.040037902e0
3.742232458e0,-8.554971814e-1,7.122082233e0,4.653600752e-1,7.188358002e0
3.752265458e0,-1.258440375e0,6.593879700e0,2.081101179e0,7.028079666e0
3.762297458e0,-2.201366901e0,8.352092743e0,2.727159023e0,9.057641291e0
3.772330458e0,-2.907113075e0,9.787508965e0,3.442430258e0,1.077483013e1
3.782363458e0,-2.701576471e0,1.310132027e1,3.462982178e0,1.381793594e1
3.792396458e0,-1.366872787e0,2.052959061e1,2.869652510e0,2.077419883e1
3.802429458e0,1.225791454e0,2.749622726e1,1.951127768e0,2.759260731e1
3.812462458e0,6.852836132e0,2.283637619e1,2.193992615e0,2.394316278e1
3.822495458e0,8.349498749e0,8.075455666e0,2.031022310e0,1.179203821e1
3.832527458e0,4.869504452e0,-3.487377405e0,6.943780780e-1,6.029596644e0
3.842560458e0,1.614563227e0,-6.764321327e0,-6.095694900e-1,6.981005113e0
3.852593458e0,-6.540331244e-1,-2.315271378e0,-1.732806265e-1,2.412108425e0
3.862626458e0,-1.059348941e0,1.781634331e0,4.910050705e-2,2.073367292e0
3.872659458e0,-2.785168886e-1,1.708352447e0,-1.681832783e-2,1.730988907e0
3.882692458e0,2.577137649e-1,1.353061199e0,3.600926837e-3,1.377390272e0
3.892726333e0,5.291472673e-1,-3.598992229e-1,3.542464674e-1,7.314470868e-1
3.902758333e0,9.397363663e-1,-2.408045530e0,5.377148986e-1,2.640250940e0
3.912791333e0,9.173188806e-1,-2.986039400e0,2.648755312e-1,3.134974366e0
3.922824333e0,4.427563548e-1,-2.181405306e0,3.135527968e-1,2.247860684e0
3.932857333e0,-2.542416453e-1,-1.013039112e0,5.433002114e-1,1.177311419e0
3.942890333e0,-9.780400991e-1,-1.287252456e-2,5.585625172e-1,1.126374815e0
3.952923333e0,-1.454114437e0,6.965110302e-1,3.029277325e-1,1.640530897e0
3.962955333e0,-1.494086623e0,5.848582387e-1,2.357230755e-3,1.604481085e0
3.972988333e0,-1.255063534e0,1.850637794e-1,-2.072663307e-1,1.285454164e0
3.983021333e0,-8.592847586e-1,-1.016585305e-1,-3.119999170e-1,9.198090570e-1
3.993054333e0,-3.891447783e-1,-1.187434644e-1,-3.056833148e-1,5.088968046e-1
4.003087333e0,1.056708023e-1,2.264440209e-1,-1.794058084e-1,3.076193381e-1
4.013120333e0,6.085731387e-1,6.739903092e-1,5.184160173e-2,9.095667946e-1
4.023153333e0,1.035854697e0,9.971516132e-1,2.593148947e-1,1.461010099e0
4.033185333e0,1.038800001e0,6.040132642e-1,3.025790155e-1,1.239149517e0
4.043218333e0,6.094264984e-1,-8.274963498e-2,1.972459555e-1,6.458746984e-1
4.053251333e0,1.301943660e-1,-3.922458291e-1,8.084655739e-3,4.133675423e-1
4.063284333e0,-1.849020571e-1,-1.399877667e-1,-8.312141895e-2,2.463625699e-1
4.073317333e0,-2.737902999e-1,2.049988508e-1,-1.074117050e-1,3.585009505e-1
4.083350333e0,-2.251170278e-1,2.610994279e-1,-1.568253189e-1,3.787410304e-1
4.093382333e0,-1.293717623e-1,-1.004975662e-1,-1.161601469e-1,2.008232890e-1
4.103415333e0,-2.922784537e-2,-4.516087174e-1,-2.408215031e-2,4.531938333e-1
4.113448333e0,2.148902789e-2,-5.313447118e-1,1.629208028e-2,5.320285828e-1
4.123481333e0,9.479088476e-5,-3.306763172e-1,1.210332499e-3,3.306785458e-1
4.133514333e0,-6.069309637e-2,-4.054820910e-2,-1.011679973e-2,7.368961151e-2
4.143547333e0,-1.096870005e-1,1.934909225e-1,5.520748906e-3,2.224869745e-1
4.153580333e0,-1.254692376e-1,2.676170468e-1,1.346237119e-2,2.958760700e-1
4.163612333e0,-1.070787758e-1,1.812004000e-1,8.451129543e-4,2.104760400e-1
4.173645333e0,-5.048209801e-2,4.144615307e-2,-7.159667090e-3,6.570758447e-2
4.183678333e0,2.976134047e-2,-3.987613320e-2,3.527598456e-3,4.988273586e-2
4.193711333e0,1.109372973e-1,1.657264680e-2,2.364847995e-2,1.146341449e-1
4.203744333e0,1.293991208e-1,7.622399181e-2,5.028088763e-2,1.583742310e-1
4.213777333e0,9.109350294e-2,9.315446019e-2,5.544436350e-2,1.415975183e-1
4.223809333e0,2.658774890e-2,5.901087075e-2,3.986593708e-2,7.601634165e-2
4.233842333e0,-2.856721543e-2,3.607477993e-2,1.976244524e-2,5.008023349e-2
4.243875333e0,-5.222194269e-2,3.589874506e-2,3.198382212e-3,6.345140538e-2
4.253908333e0,-4.223851115e-2,4.565820470e-2,-1.659410819e-2,6.437490122e-2
4.263941333e0,-7.139685331e-4,1.675651595e-2,-1.995501667e-2,2.606709167e-2
4.273974333e0,5.258280784e-2,-5.452805012e-2,-6.110041402e-3,7.599731927e-2
4.284006333e0,9.315447509e-2,-1.266006529e-1,-3.451141529e-3,1.572176578e-1
4.294039333e0,1.115434915e-1,-1.554823071e-1,-1.467305049e-2,1.919166400e-1
4.304072333e0,9.991479665e-2,-9.721766412e-2,-3.328961134e-2,1.433263375e-1
4.314105333e0,6.773209572e-2,-1.019248739e-2,-3.637674823e-2,7.755508624e-2
4.324138333e0,1.147947554e-2,5.349727720e-2,-2.912256494e-2,6.198274611e-2
4.334171333e0,-5.215206370e-2,4.376060143e-2,-1.228349097e-2,6.917884168e-2
4.344204333e0,-9.717573225e-2,1.172064431e-2,7.475566119e-3,9.816506777e-2
4.354236333e0,-1.108182073e-1,1.920150593e-3,2.250313014e-2,1.130962108e-1
4.364269333e0,-9.302136302e-2,3.182265535e-2,2.948487177e-2,1.026402116e-1
4.374302333e0,-5.894310400e-2,6.385374814e-2,2.043707296e-2,8.927073771e-2
4.384335333e0,-2.905072086e-2,6.259194016e-2,7.348169107e-3,6.939517955e-2
4.394368333e0,-1.680542342e-2,2.258761227e-2,-1.381163951e-3,2.818741028e-2
4.404401333e0,-1.839692891e-2,-1.558933500e-2,-3.124469426e-3,2.431535869e-2
4.414434333e0,-2.619978413e-2,-2.190651931e-2,3.754452104e-3,3.435724359e-2
4.424466333e0,-2.243380807e-2,4.684078041e-3,6.983800791e-3,2.395808434e-2
4.434499333e0,-3.038275754e-3,1.748584397e-2,5.913158879e-3,1.870698551e-2
4.444532333e0,2.738461085e-2,1.075444976e-3,2.433206188e-3,2.751352368e-2
4.454565333e0,5.597325787e-2,-2.946836688e-2,-2.952767070e-3,6.332542204e-2
4.464598333e0,7.741250843e-2,-3.799447790e-2,-4.189272877e-3,8.633554783e-2
4.474631333e0,7.463681698e-2,-1.750889234e-2,-1.357803354e-3,7.667502455e-2
4.484663333e0,5.475338176e-2,6.896581966e-3,-4.017287865e-4,5.518747179e-2
4.494696333e0,1.796628349e-2,1.548116468e-2,1.000719611e-3,2.373721217e-2
4.504729333e0,-3.084253334e-2,8.151080459e-3,-6.762729026e-4,3.190860887e-2
4.514762333e0,-6.210444123e-2,-4.992219619e-3,-3.921116702e-3,6.242803083e-2
4.524795333e0,-6.888378412e-2,-1.581775723e-3,-3.223634791e-3,6.897731185e-2
4.534828333e0,-5.439114943e-2,5.246971268e-3,-4.037933424e-3,5.479263409e-2
4.544860333e0,-2.469876781e-2,4.520993680e-3,-3.768421710e-3,2.539034300e-2
4.554893333e0,8.810151368e-3,-1.611504122e-3,1.427818206e-3,9.069419910e-3
4.564926333e0,2.862460352e-2,-1.376537234e-2,7.410875522e-3,3.261555577e-2
4.574959333e0,3.533279523e-2,-1.814924181e-2,8.050710894e-3,4.052919124e-2
4.584992333e0,3.011060506e-2,-1.026521996e-2,6.125777960e-3,3.239673492e-2
4.595025333e0,2.400911786e-2,-5.824220134e-4,1.063085045e-3,2.403969853e-2
4.605058333e0,1.560151856e-2,7.699311245e-4,-2.316732425e-3,1.579137184e-2
4.615090333e0,6.078525912e-3,3.227062989e-3,-2.378807636e-3,7.281561547e-3
4.625123333e0,-3.320834367e-3,1.813989598e-3,-3.002253594e-3,4.830323570e-3
4.635156333e0,-1.484318543e-2,5.360286683e-3,-3.663322888e-3,1.620101113e-2
4.645189333e0,-2.251521870e-2,8.428247645e-3,1.288558939e-3,2.407552317e-2
4.655222333e0,-2.792272903e-2,8.375553414e-3,8.441972313e-4,2.916404225e-2
4.665255333e0,-3.237313777e-2,4.126479849e-3,-9.944492485e-4,3.265021921e-2
4.675287333e0,-2.976959012e-2,2.608955838e-4,4.239310510e-5,2.977076351e-2
4.685320333e0,-2.275056206e-2,-3.513651900e-4,2.466402482e-3,2.288656096e-2
4.695353333e0,-1.403649338e-2,2.953716321e-3,1.932413899e-3,1.447348645e-2
4.705386333e0,-1.547865919e-3,-1.412270125e-3,4.906365648e-3,5.335055734e-3
4.715419333e0,1.279106271e-2,2.169262152e-4,5.750875920e-3,1.402607985e-2
4.725452333e0,2.320508845e-2,-3.531472990e-3,4.446992651e-3,2.388981321e-2
4.735485333e0,2.573839203e-2,-1.909976359e-3,2.220955677e-3,2.590454551e-2
4.745517333e0,2.623587102e-2,-3.667396260e-3,-3.500794992e-5,2.649097863e-2
4.755550333e0,2.120386623e-2,-4.142248072e-3,-2.357479883e-3,2.173292142e-2
4.765583333e0,1.265938114e-2,-4.890862387e-3,-4.755922593e-3,1.438051687e-2
4.775616333e0,2.593838144e-5,-3.652813379e-3,-3.839190351e-3,5.299349104e-3
4.785649333e0,-7.115594111e-3,-9.473079117e-4,-3.910296597e-3,8.174319012e-3
4.795682333e0,-1.632691734e-2,-1.235101372e-4,-2.898708684e-3,1.658270172e-2
4.805714333e0,-1.813626848e-2,-2.984798048e-4,-1.106453128e-4,1.813906191e-2
4.815747333e0,-1.689777523e-2,-3.342470154e-5,7.796993013e-4,1.691578718e-2
4.825780333e0,-1.419866085e-2,-2.903513378e-3,-2.797991270e-3,1.476011907e-2
4.835813333e0,-6.807385944e-3,-1.175822923e-3,-2.680132166e-4,6.913385135e-3
4.845846333e0,-6.634731544e-4,-5.012372509e-3,4.728783388e-4,5.078158004e-3
4.855879333e0,5.605487153e-3,-1.164390356e-3,1.154916594e-3,5.840472880e-3
4.865911333e0,8.141349070e-3,-1.074641827e-3,3.840714693e-3,9.065732683e-3
4.875944333e0,6.881714333e-3,1.585048158e-3,1.026090817e-3,7.136051582e-3
4.885977333e0,7.561619394e-3,1.881724223e-3,5.483604036e-5,7.792431000e-3
4.896010125e0,5.559078418e-4,1.656953711e-3,1.909234561e-4,1.758118567e-3
4.906043125e0,-3.330443054e-3,1.970940270e-3,4.085264169e-3,5.627240870e-3
4.916076125e0,-4.273734987e-3,4.010921344e-3,2.938506892e-3,6.556456628e-3
4.926109125e0,-9.356111288e-3,3.100386821e-3,1.709990669e-3,1.000366358e-2
4.936141125e0,-9.388808161e-3,5.647351500e-4,1.571727917e-4,9.407090292e-3
4.946174125e0,-9.210908785e-3,2.422262914e-4,4.996552598e-4,9.227630769e-3
4.956207125e0,-7.914913818e-3,1.145681366e-3,1.736739301e-3,8.183807790e-3
4.966240125e0,-3.630154300e-3,-1.768882154e-3,1.943400595e-3,4.481491961e-3
4.976273125e0,-3.651582636e-3,-2.576065715e-3,5.306410603e-4,4.500194468e-3
4.986306125e0,2.867036499e-3,-9.238405619e-4,-6.070614327e-4,3.072768012e-3
4.996338125e0,8.508087136e-3,-2.574670827e-3,-3.438600339e-3,9.531025594e-3
5.006371125e0,1.173530612e-2,-2.788985148e-5,-5.608543754e-3,1.300668869e-2
5.016404125e0,1.185195241e-2,-5.342493765e-3,-8.208322339e-3,1.537490069e-2
5.026437125e0,9.166686796e-3,-6.454097573e-3,-6.947581656e-3,1.318910206e-2
5.036470125e0,3.871481400e-3,-5.440006033e-3,1.309779473e-4,6.678262430e-3
5.046503125e0,-5.049042869e-3,1.263170270e-3,4.783520475e-3,7.068981621e-3
5.056535125e0,-8.117413148e-3,4.426542670e-3,1.007899921e-2,1.367745961e-2
5.066568125e0,-1.251882035e-2,8.002635092e-3,4.139351193e-3,1.542391843e-2
5.076601125e0,-6.895227358e-3,1.193633070e-3,-1.076393947e-2,1.283866477e-2
5.086634125e0,6.487093633e-4,-1.610812545e-2,-1.454829238e-2,2.171509476e-2
5.096667125e0,6.588643882e-3,-1.453002915e-2,2.934512217e-3,1.622169341e-2
5.106700125e0,5.787831265e-3,5.955272354e-3,1.402657852e-2,1.630058786e-2
5.116732125e0,-4.596509971e-3,1.787720248e-2,1.269606315e-2,2.240339911e-2
5.126765125e0,-7.904688828e-3,1.067441702e-2,-5.614194088e-4,1.329445282e-2
5.136798125e0,-5.862493999e-3,-7.522087079e-3,-8.878229186e-3,1.302971924e-2
5.146831125e0,-5.163947120e-3,-5.210197065e-3,-1.356246322e-2,1.541923837e-2
5.156864125e0,-6.754343049e-4,5.544044077e-3,-2.594063524e-3,6.158068025e-3
5.166897125e0,4.435970914e-3,7.390147075e-3,5.824188702e-3,1.040256150e-2
5.176930125e0,5.499288440e-3,-5.319890333e-4,1.313490421e-2,1.424959277e-2
5.186962125e0,7.595729083e-3,-9.730014950e-3,9.518065490e-3,1.558723394e-2
5.196995125e0,3.845548024e-3,-1.209966466e-2,-1.846514177e-3,1.282964298e-2
5.207028125e0,-2.710355679e-3,-2.329857554e-3,-9.170473553e-3,9.842349786e-3
5.217061125e0,-1.184844226e-2,7.674476132e-3,-9.166264907e-3,1.683162441e-2
5.227094125e0,-1.778436266e-2,8.622295223e-3,-2.886530943e-3,1.997397284e-2
5.237127125e0,-1.602399163e-2,-8.305469528e-3,7.383273914e-3,1.950030424e-2
5.247159125e0,1.347808167e-3,-9.753962979e-3,8.539617993e-3,1.303385807e-2
5.257192125e0,1.691701449e-2,-4.032447934e-3,2.365003340e-3,1.755104716e-2
5.267225125e0,2.206730284e-2,3.224932356e-3,-2.543202369e-3,2.244624515e-2
5.277258125e0,1.524240244e-2,6.665037014e-3,-1.397456974e-3,1.669450318e-2
5.287291125e0,-6.103304331e-4,1.406359021e-3,-4.221206531e-3,4.490983579e-3
5.297324125e0,-1.018968038e-2,-4.131427035e-3,-3.798225429e-3,1.163291847e-2
5.307356125e0,-1.116732694e-2,-2.956174081e-3,-5.244014319e-4,1.156387275e-2
5.317389125e0,-3.673867323e-3,3.160377266e-3,1.537200762e-3,5.084119565e-3
5.327422125e0,1.883883378e-3,5.850702524e-3,4.483722150e-3,7.608120723e-3
5.337455125e0,5.772301927e-3,1.628934406e-3,3.874679096e-3,7.140450611e-3
5.347488125e0,4.534365726e-4,-6.595173385e-3,9.369462496e-4,6.676809491e-3
5.357521125e0,-2.732952358e-3,-7.614864968e-3,-2.232819097e-3,8.392894506e-3
5.367553125e0,-5.368683022e-3,-2.629160881e-3,-1.316957874e-3,6.121243531e-3
5.377586125e0,-6.191578228e-3,3.964690492e-3,1.095503918e-3,7.433339793e-3
5.387619125e0,-4.422440194e-3,4.291460849e-3,4.701956641e-3,7.751323096e-3
5.397652125e0,-3.430024022e-3,2.196952235e-3,3.627685830e-3,5.454518164e-3
5.407685125e0,2.441447228e-3,-1.713633654e-3,1.413533580e-3,3.300800214e-3
5.417718125e0,9.107089601e-3,2.176611451e-3,-1.928788144e-3,9.560174796e-3
5.427751125e0,5.164545495e-3,4.419259727e-3,-2.460355405e-3,7.228812864e-3
5.437783125e0,4.624793073e-4,2.131226938e-3,-2.759489231e-3,3.517214265e-3
5.447816125e0,-4.614837002e-3,8.366645779e-4,-1.550414134e-3,4.939687455e-3
5.457849125e0,-6.214214955e-3,-6.818448193e-3,1.978341956e-3,9.435122689e-3
5.467882125e0,-6.817208487e-5,-3.397351597e-3,-6.920096930e-4,3.467783546e-3
5.477915125e0,3.055531532e-3,-2.536853775e-3,3.012374509e-3,4.984606324e-3
5.487948125e0,7.289937930e-4,-1.474252669e-3,-2.009281889e-3,2.596548977e-3
5.497980125e0,4.302402493e-3,-1.583572011e-3,-6.328634918e-4,4.628053989e-3
5.508013125e0,-1.736581209e-3,-2.757227048e-3,2.723784884e-3,4.247001223e-3
5.518046125e0,-6.016199011e-3,-2.551599871e-3,2.792421961e-3,7.106541554e-3
5.528079125e0,-2.429453656e-3,2.190158237e-3,1.037665177e-3,3.431586687e-3
5.538112125e0,3.117576707e-4,3.013061360e-4,2.994191833e-3,3.025419469e-3
5.548145125e0,6.324110553e-3,-5.735422019e-4,1.790709328e-3,6.597724216e-3
5.558177125e0,1.806057291e-3,-7.354624104e-4,-4.447507672e-5,1.950570667e-3
5.568210125e0,1.944009215e-3,-1.743342727e-4,-8.583369199e-4,2.132206963e-3
5.578243125e0,-1.810455695e-3,4.660980776e-4,7.398956222e-4,2.010582695e-3
5.588276125e0,-8.392834570e-5,4.850064870e-4,1.441105967e-3,1.522846568e-3
5.598309125e0,-1.236296026e-3,1.608158695e-3,8.328920230e-4,2.192786212e-3
5.608342125e0,-3.329274477e-3,-1.103738323e-3,6.371496711e-4,3.564865570e-3
5.618375125e0,-1.574233291e-3,-2.071361989e-3,-1.863078214e-3,3.199970527e-3
5.628407125e0,-1.514045871e-3,-1.433801139e-3,-2.133389004e-3,2.983197822e-3
5.638440125e0,-4.080389626e-3,1.886029029e-3,-1.558459131e-3,4.757675889e-3
5.648473125e0,-3.550154157e-3,7.896057796e-4,-1.057785004e-3,3.787608869e-3
5.658506125e0,-4.050090443e-3,-1.536565600e-3,8.277090965e-4,4.410143851e-3
5.668539125e0,5.023169215e-4,-2.632190008e-3,4.368647933e-3,5.125020126e-3
5.678572125e0,-9.351356421e-4,2.102710772e-3,6.616936065e-3,7.005691554e-3
5.688604125e0,3.079313319e-3,4.467570689e-4,5.917323753e-3,6.685542820e-3
5.698637125e0,-1.905835816e-3,6.380679086e-3,-1.798748039e-3,6.897881578e-3
5.708670125e0,-2.689870540e-3,8.249418810e-3,-1.582907885e-2,1.805126177e-2
5.718703125e0,8.255066350e-3,-8.035345934e-3,-1.078616455e-2,1.578145274e-2
5.728736125e0,2.004568093e-2,-1.868532784e-2,1.144796610e-3,2.742774799e-2
5.738769125e0,-1.133709308e-2,9.693019092e-3,3.545809910e-2,3.846766292e-2
5.748801125e0,-5.197080597e-2,6.664258987e-2,8.684006333e-2,1.211750637e-1
5.758834125e0,-7.787431777e-2,7.504142821e-2,7.780425996e-2,1.332258540e-1
5.768867125e0,-3.825420141e-2,2.740546316e-2,-4.432324320e-2,6.464513303e-2
5.778900125e0,3.601327166e-2,-2.579510212e-2,-1.252885461e-1,1.328892878e-1
5.788933125e0,3.402655199e-2,3.845658898e-2,-4.404995590e-3,5.153755391e-2
5.798966125e0,1.219117492e-1,-9.925783426e-2,1.896687895e-1,2.463510543e-1
5.808998125e0,9.348170459e-2,1.580217853e-2,1.887894273e-1,2.112581023e-1
5.819031125e0,-1.218239665e-1,2.412298471e-1,-7.531257346e-3,2.703509530e-1
5.829064125e0,-1.570392102e-1,8.438296616e-2,-7.567649335e-2,1.936717072e-1
5.839097125e0,-2.256553434e-2,-2.076261640e-1,-3.458005562e-2,2.116922473e-1
5.849130125e0,5.943505839e-2,-2.400903553e-1,3.558571637e-2,2.498844694e-1
5.859163125e0,8.000010997e-2,-2.598651871e-2,1.019069999e-1,1.321376305e-1
5.869195125e0,6.698391587e-2,1.405207068e-1,5.060466006e-2,1.636879520e-1
5.879228125e0,6.549351849e-3,9.362229705e-2,-5.675092340e-2,1.096754112e-1
5.889261125e0,-8.234003931e-2,-8.120969683e-2,-1.108932570e-1,1.602255016e-1
5.899294333e0,-8.360854536e-2,-1.994543076e-1,-7.014323026e-2,2.273598083e-1
5.909327333e0,-4.858371615e-2,-7.063934207e-2,1.055108197e-2,8.638066597e-2
5.919360333e0,-3.546401113e-2,1.760737747e-1,6.108254194e-2,1.897122746e-1
5.929392333e0,-8.259287104e-3,2.359805107e-1,4.556696117e-2,2.404815278e-1
5.939425333e0,1.291737985e-2,4.667234048e-2,-1.981416484e-3,4.846743319e-2
5.949458333e0,2.781776525e-2,-1.456342638e-1,-4.788685963e-2,1.558085947e-1
5.959491333e0,4.256913811e-2,-1.176124066e-1,-8.024341613e-2,1.486062433e-1
5.969524333e0,4.737481102e-2,5.126449466e-2,-4.132904112e-2,8.112034746e-2
5.979557333e0,4.518155381e-2,1.198484153e-1,4.169585183e-2,1.346980308e-1
5.989590333e0,2.928141691e-2,2.090585977e-2,8.908121288e-2,9.607246659e-2
5.999622333e0,4.758268129e-3,-1.140668392e-1,7.267332077e-2,1.353340182e-1
6.009655333e0,-9.522133507e-3,-1.397383809e-1,2.791970037e-2,1.428180514e-1
6.019688333e0,-1.244967990e-2,-3.339156881e-2,-1.770479232e-2,3.979260067e-2
6.029721333e0,-2.357716486e-2,4.975897819e-2,-3.297349438e-2,6.418013668e-2
6.039754333e0,-3.938179836e-2,8.814575151e-3,-1.048426330e-2,4.169583377e-2
6.049787333e0,-4.764531925e-2,-6.395150721e-2,2.907708753e-3,7.980179504e-2
6.059819333e0,-4.001591355e-2,-7.205708325e-2,-1.005242346e-3,8.242880016e-2
6.069852333e0,-5.628908984e-3,-5.361678079e-3,-9.391003288e-3,1.219110950e-2
6.079885333e0,2.181655914e-2,6.273143739e-2,-2.427778766e-2,7.071496633e-2
6.089918333e0,3.237838671e-2,5.596220866e-2,-1.908968389e-2,6.741323872e-2
6.099951333e0,1.726097241e-2,1.824935526e-2,-4.761662334e-3,2.556664945e-2
6.109984333e0,1.415963983e-3,1.767052338e-3,1.200852916e-2,1.222015550e-2
6.120016333e0,2.308788942e-3,2.481586859e-2,2.685137652e-2,3.663542358e-2
6.130049333e0,3.577785101e-3,4.901840910e-2,1.753404178e-2,5.218282858e-2
6.140082333e0,8.295418695e-3,3.041640669e-2,-9.900007863e-4,3.154285765e-2
6.150115333e0,1.480844524e-2,-2.602716349e-2,-1.376518514e-2,3.295729982e-2
6.160148333e0,1.693096757e-2,-5.924120545e-2,-7.560230792e-3,6.207523803e-2
6.170181333e0,1.255379710e-2,-4.860640690e-2,-7.076507900e-4,5.020638787e-2
6.180213333e0,4.063921981e-3,-2.261938341e-2,1.158411428e-2,2.573603838e-2
6.190246333e0,-1.682804339e-2,-9.152842686e-3,1.648113504e-2,2.527024704e-2
6.200279333e0,-6.538144350e-1,-5.095986366e0,-1.439367682e-1,5.139773162e0
6.210312333e0,-2.643297434e0,-7.872860432e0,-1.767828614e-1,8.306636195e0
6.220345333e0,-3.019426823e0,-4.224843979e0,-1.120225117e-1,5.194111476e0
6.230378333e0,-2.887256145e0,-1.250612617e0,2.579976320e-1,3.157030685e0
6.240410333e0,-1.620654583e0,8.820309043e-1,3.928545117e-1,1.886487334e0
6.250443333e0,4.705316424e-1,1.662385821e0,2.750469148e-1,1.749450614e0
6.260476333e0,1.839128137e0,1.160045862e0,6.280912459e-2,2.175326112e0
6.270509333e0,1.587411761e0,7.522714883e-2,-5.999269336e-2,1.590325233e0
6.280542333e0,2.332220972e-1,-1.093927145e0,-5.517237354e-3,1.118525630e0
6.290575333e0,-7.411052585e-1,-1.712314963e0,-2.234881818e-1,1.879150474e0
6.300607333e0,-2.790035903e-1,1.931125671e-1,-4.037561417e-1,5.274035352e-1
6.310640333e0,7.361350656e-1,1.996852160e0,-2.661780417e-1,2.144799322e0
6.320673333e0,9.651436806e-1,1.315817475e0,-1.525740921e-1,1.638949910e0
6.330706333e0,7.242767215e-1,1.071346283e0,-1.509957947e-2,1.293285593e0
6.340739333e0,1.090725541e0,5.081092834e0,1.392541975e-1,5.198709295e0
6.350772333e0,1.859388590e0,4.909539223e0,-1.953532454e-3,5.249848105e0
6.360804333e0,1.542313337e0,2.833730459e0,1.619995199e-2,3.226301471e0
6.370837333e0,2.885330617e-1,-5.064802766e-1,2.634613812e-1,6.396760881e-1
6.380870333e0,-7.061021328e-1,-2.245209455e0,6.959132552e-1,2.454351438e0
6.390903333e0,-1.348641396e0,-2.665287971e0,1.529229879e0,3.355761852e0
6.400936333e0,-1.490992665e0,-3.210529089e0,2.429962397e0,4.293631727e0
6.410969333e0,-9.663326740e-1,-3.052773237e0,2.844044924e0,4.282734501e0
6.421001333e0,-1.413377225e-1,-2.557927608e0,2.769940615e0,3.773001592e0
6.431034333e0,5.738070607e-1,-2.236780643e0,2.577150345e0,3.460367912e0
6.441067333e0,1.007351160e0,-1.979921579e0,2.516778708e0,3.356936235e0
6.451100333e0,1.271391869e0,-1.705345869e0,2.652490854e0,3.400051404e0
6.461133333e0,1.407423496e0,-1.043995380e0,2.781339169e0,3.287341604e0
6.471166333e0,1.514728904e0,3.590474650e-2,2.918157816e0,3.288059890e0
6.481198333e0,1.584298015e0,1.409681559e0,3.145373821e0,3.793491633e0
6.491231333e0,1.530142665e0,2.992516518e0,3.563768148e0,4.898666665e0
6.501264333e0,9.923930168e-1,2.517472744e0,4.022515774e0,4.848004339e0
6.511297333e0,1.105495170e-1,1.433722854e0,4.041519642e0,4.289716008e0
6.521330333e0,-2.330756187e-1,1.818620443e0,3.295974731e0,3.771624848e0
6.531363333e0,3.556356952e-2,1.265906334e0,2.449405432e0,2.757421002e0
6.541396333e0,4.412162304e-1,7.810800672e-1,1.694370270e0,1.917198071e0
6.551428333e0,5.083497763e-1,6.991263032e-1,8.941696286e-1,1.243678579e0
6.561461333e0,2.279019207e-1,7.720727324e-1,3.107863069e-1,8.629158233e-1
6.571494333e0,-1.887664050e-1,1.069224596e0,1.480967402e-1,1.095813231e0
6.581527333e0,-5.758652091e-1,1.268698096e0,2.645017803e-1,1.418159649e0
6.591560333e0,-7.786542773e-1,9.349541068e-1,3.464682698e-1,1.265101548e0
6.601593333e0,-6.316457391e-1,8.176490664e-1,3.018923700e-1,1.076413182e0
6.611625333e0,-2.042113245e-1,9.881241322e-1,3.311844766e-1,1.061967383e0
6.621658333e0,1.839918457e-2,1.095358014e0,3.246767819e-1,1.142612236e0
6.631691333e0,6.459624320e-2,8.934938908e-1,1.902585179e-1,9.158069180e-1
6.641724333e0,1.412759274e-1,4.437120557e-1,1.856830865e-1,5.013157534e-1
6.651757333e0,4.248802364e-1,-4.656819999e-2,3.313707709e-1,5.408312124e-1
6.661789333e0,9.281923771e-1,-3.215734363e-1,4.584809542e-1,1.084045824e0
6.671822333e0,1.370343089e0,-1.023891494e-1,6.166719198e-1,1.506189887e0
6.681855333e0,1.515548587e0,4.007091522e-1,9.314585924e-1,1.823477571e0
6.691888333e0,1.383339167e0,9.533041716e-1,1.450946808e0,2.219833943e0
6.701921333e0,1.031118393e0,1.862875462e0,2.444514036e0,3.241783305e0
6.711954333e0,3.208131194e-1,2.407002687e0,4.411139488e0,5.035348506e0
6.721986333e0,-2.222238481e-1,3.173549175e0,6.275490761e0,7.035807139e0
6.732019333e0,-4.803571403e-1,4.398339748e0,7.250425339e0,8.493809694e0
6.742052333e0,-5.790008903e-1,5.587131023e0,7.402420998e0,9.292314659e0
6.752085333e0,-9.085044861e-1,6.378706932e0,7.017482281e0,9.526717173e0
6.762118333e0,-1.438835979e0,6.804395199e0,6.411777020e0,9.459435900e0
6.772151333e0,-1.946641922e0,7.337904453e0,5.773881912e0,9.537922671e0
6.782183333e0,-2.601174593e0,8.497614861e0,5.252495766e0,1.032299760e1
6.792216333e0,-3.464782238e0,9.675856590e0,4.817921162e0,1.135073923e1
6.802249333e0,-4.363729954e0,1.055645275e1,4.405257225e0,1.224283974e1
6.812282333e0,-5.333958626e0,1.097123623e1,4.021417618e0,1.284487986e1
6.822315333e0,-6.230140209e0,1.092990494e1,3.670656204e0,1.310538767e1
6.832348333e0,-6.830617905e0,1.088657379e1,3.321821213e0,1.327438609e1
6.842381333e0,-7.062735081e0,1.082305336e1,2.989359856e0,1.326487781e1
6.852413333e0,-7.020137310e0,1.065610981e1,2.578510761e0,1.301859139e1
6.862446333e0,-6.764410973e0,1.054689312e1,1.939259291e0,1.267891702e1
6.872479333e0,-6.391119957e0,1.053605270e1,9.973204732e-1,1.236323052e1
6.882512333e0,-6.074563980e0,1.045218182e1,-1.901900470e-1,1.209068255e1
6.892545333e0,-5.690181732e0,9.991292953e0,-1.460010290e0,1.159032929e1
6.902578375e0,-4.944956779e0,9.319247246e0,-2.607666254e0,1.086742334e1
6.912610375e0,-3.858889580e0,8.499619484e0,-3.350922108e0,9.917824314e0
6.922643375e0,-2.919823408e0,7.534002304e0,-3.832149029e0,8.942702367e0
6.932676375e0,-2.185846567e0,6.669912338e0,-4.162590504e0,8.160442115e0
6.942709375e0,-1.409663916e0,6.257582188e0,-4.351994038e0,7.751408859e0
6.952742375e0,-4.957496822e-1,5.990936756e0,-4.335326672e0,7.411622516e0
6.962775375e0,4.694960415e-1,5.657907486e0,-4.122529984e0,7.016238103e0
6.972807375e0,1.337667227e0,5.269910812e0,-3.813632965e0,6.641167817e0
6.982840375e0,1.905712128e0,5.147110939e0,-3.570681334e0,6.547843532e0
6.992873375e0,2.205836296e0,4.968622684e0,-3.383664131e0,6.403288850e0
7.002906375e0,2.317567825e0,5.107648373e0,-3.148558855e0,6.432154801e0
7.012939375e0,2.384541035e0,5.744433880e0,-2.903949022e0,6.864217105e0
7.022972375e0,2.404494524e0,6.599357128e0,-2.646313906e0,7.505736853e0
7.033004375e0,2.379915714e0,7.565854549e0,-2.405847311e0,8.288199753e0
7.043037375e0,2.306879759e0,8.620899200e0,-2.184423923e0,9.187671366e0
7.053070375e0,2.032205820e0,9.894345284e0,-2.083426714e0,1.031351521e1
7.063103375e0,1.749553442e0,1.104108620e1,-1.923671365e0,1.134314917e1
7.073136375e0,9.917357564e-1,1.079106998e1,-1.638151765e0,1.095966571e1
7.083169375e0,-1.087021351e0,3.728841305e0,-1.255418301e0,4.081904948e0
7.093201375e0,-1.168768644e0,7.495161295e-1,-6.299414039e-1,1.524670700e0
7.103234375e0,-1.182549119e0,2.053894997e-1,-4.147437811e-1,1.269889629e0
7.113267375e0,-1.327792645e0,3.294810653e-1,-4.253727198e-1,1.432666406e0
7.123300375e0,-1.600126386e0,5.027256608e-1,-5.179944038e-1,1.755407572e0
7.133333375e0,-2.198283672e0,6.076691151e-1,-7.320188284e-1,2.395321361e0
7.143366375e0,-2.518967628e0,-2.700061798e-1,-7.038797140e-1,2.629362642e0
7.153398375e0,-2.692821741e0,-1.380297184e0,-3.749348521e-1,3.049112230e0
7.163431375e0,-2.966356993e0,-1.768036485e0,-6.949996948e-2,3.453991469e0
7.173464375e0,-3.149245501e0,-1.526196718e0,2.536085844e-1,3.508752052e0
7.183497375e0,-3.263461351e0,-1.013420582e0,5.599688888e-1,3.462768607e0
7.193530375e0,-3.161394358e0,-3.083559275e-1,8.548138142e-1,3.289407898e0
7.203562375e0,-2.929137945e0,3.048806787e-1,1.091245890e0,3.140639890e0
7.213595375e0,-2.594429255e0,4.681937099e-1,1.193832755e0,2.894046502e0
7.223628375e0,-2.115674496e0,4.179940224e-1,1.154238105e0,2.446030085e0
7.233661375e0,-1.508207202e0,3.735562563e-1,1.116434574e0,1.913284976e0
7.243694375e0,-8.519422412e-1,8.217878342e-1,9.714246988e-1,1.531276191e0
7.253727375e0,-1.472375989e-1,1.379412532e0,6.485134959e-1,1.531348294e0
7.263759375e0,5.484757423e-1,1.646679878e0,2.748776376e-1,1.757252963e0
7.273792375e0,1.130261898e0,1.656492233e0,-8.017953485e-2,2.006959699e0
7.283825375e0,1.568394661e0,1.615862012e0,-4.506283998e-1,2.296505565e0
7.293858375e0,1.820838809e0,1.668311596e0,-7.827576399e-1,2.590642212e0
7.303891375e0,1.930722117e0,1.665304542e0,-1.012347341e0,2.743314464e0
7.313924375e0,1.989282608e0,1.500377417e0,-1.162304163e0,2.749423331e0
7.323956375e0,2.039915085e0,1.016567945e0,-1.257801890e0,2.603215231e0
7.333989375e0,1.975196362e0,4.342946112e-1,-1.292705774e0,2.400229300e0
7.344022375e0,1.773694038e0,2.190862596e-1,-1.233080268e0,2.171284477e0
7.354055375e0,1.464439273e0,3.124987781e-1,-1.076724529e0,1.844335539e0
7.364088375e0,1.134517193e0,4.628706276e-1,-8.744605780e-1,1.505343742e0
7.374121375e0,7.780572772e-1,4.226627350e-1,-5.900768042e-1,1.064052418e0
7.384153375e0,3.962521255e-1,2.304503918e-1,-3.388377428e-1,5.700299518e-1
7.394186375e0,2.247512192e-1,2.712976187e-2,-1.464699060e-1,2.696341370e-1
7.404219375e0,2.992697358e-1,-1.106886342e-1,-1.003896222e-1,3.345032507e-1
7.414252375e0,5.088927746e-1,-1.098563969e-1,-1.713317037e-1,5.480828739e-1
7.424285375e0,7.008597255e-1,2.059055492e-3,-2.511373460e-1,7.444988657e-1
7.434318375e0,7.614050508e-1,1.868161112e-1,-2.686292529e-1,8.287337246e-1
7.444350375e0,6.752492785e-1,3.667973876e-1,-2.176697403e-1,7.986751703e-1
7.454383375e0,5.018990636e-1,4.687258601e-1,-1.446463913e-1,7.018042323e-1
7.464416375e0,3.322366774e-1,5.516420007e-1,-7.334686816e-2,6.481279733e-1
7.474449375e0,2.520252168e-1,4.914178252e-1,-7.000072859e-3,5.523198257e-1
7.484482375e0,2.934671342e-1,2.671820521e-1,5.482035875e-2,4.006425834e-1
7.494515375e0,3.609785140e-1,1.409436911e-1,6.938306242e-2,3.936808618e-1
7.504547375e0,4.290300012e-1,1.233178079e-1,3.431391343e-2,4.477180679e-1
7.514580375e0,4.931250811e-1,9.551785886e-2,-2.192486078e-2,5.027690389e-1
7.524613375e0,5.562900305e-1,1.077856198e-1,-1.052268296e-1,5.763237142e-1
7.534646375e0,6.446092725e-1,5.796746910e-2,-1.749837995e-1,6.704481126e-1
7.544679375e0,7.507609725e-1,-8.406243287e-3,-2.317068279e-1,7.857485328e-1
7.554712375e0,8.180478811e-1,-6.020051427e-3,-2.352922410e-1,8.512349943e-1
7.564744375e0,8.312140107e-1,6.929239631e-2,-1.726394594e-1,8.517761154e-1
7.574777375e0,8.044406772e-1,1.805115938e-1,-4.981206730e-2,8.259482312e-1
7.584810375e0,7.608706951e-1,3.292175233e-1,6.150278449e-2,8.313188226e-1
7.594843375e0,7.278831601e-1,4.625082016e-1,1.041493192e-1,8.686626572e-1
7.604876375e0,7.302628160e-1,5.134760737e-1,8.043286204e-2,8.963319162e-1
7.614909375e0,7.860192657e-1,5.318846703e-1,2.132267505e-2,9.493061913e-1
7.624941375e0,8.463093042e-1,5.516601205e-1,-4.486725852e-2,1.011227669e0
7.634974375e0,8.596869111e-1,6.446399093e-1,-1.083628759e-1,1.079983662e0
7.645007375e0,8.043614626e-1,6.556879282e-1,-1.584396511e-1,1.049774807e0
7.655040375e0,6.921395659e-1,6.391108036e-1,-1.920902878e-1,9.614668360e-1
7.665073375e0,5.627738833e-1,6.840614080e-1,-2.579570115e-1,9.226029880e-1
7.675105375e0,4.791791439e-1,7.048609853e-1,-3.137771487e-1,9.082388230e-1
7.685138375e0,4.567266107e-1,7.079133391e-1,-3.374440968e-1,9.075290690e-1
7.695171375e0,4.631315172e-1,7.066597939e-1,-3.362131715e-1,9.093394103e-1
7.705204375e0,4.943234622e-1,7.144275904e-1,-3.113408685e-1,9.228735577e-1
7.715237375e0,5.476833582e-1,7.220210433e-1,-2.799640596e-1,9.484995111e-1
7.725270375e0,5.942023396e-1,7.295905948e-1,-2.599867284e-1,9.762028249e-1
7.735302375e0,5.908352733e-1,7.048442364e-1,-2.645734847e-1,9.570218631e-1
7.745335375e0,5.705904961e-1,6.345457435e-1,-2.767463624e-1,8.971122359e-1
7.755368375e0,5.556057096e-1,5.556485057e-1,-2.917554080e-1,8.381910191e-1
7.765401375e0,5.476877093e-1,5.182396173e-1,-2.883906960e-1,8.072814388e-1
7.775434375e0,5.658432841e-1,5.194407105e-1,-2.650648654e-1,8.125617865e-1
7.785467375e0,5.685626864e-1,5.632423162e-1,-2.222997397e-1,8.306158014e-1
7.795499375e0,5.015053153e-1,6.272900105e-1,-1.748073250e-1,8.219233172e-1
7.805532375e0,4.225937128e-1,7.069640756e-1,-1.043834910e-1,8.302286212e-1
7.815565375e0,3.843486011e-1,8.323936462e-1,-4.614362493e-2,9.180045009e-1
7.825598375e0,3.602986634e-1,9.734929800e-1,-4.215846956e-2,1.038884520e0
7.835631375e0,1.481214166e-1,1.039134264e0,-3.662868217e-2,1.050276932e0
7.845664375e0,-1.910619140e-1,8.755731583e-1,3.895524144e-2,8.970231442e-1
7.855696375e0,-3.623044789e-1,4.446505010e-1,8.899896592e-2,5.804303743e-1
7.865729375e0,-2.578787506e-1,1.777150780e-1,-4.321188480e-2,3.161508594e-1
7.875762375e0,3.707887605e-2,9.992387891e-2,-2.252762318e-1,2.492167836e-1
7.885795375e0,3.087538779e-1,3.278867528e-2,-3.989271224e-1,5.055164718e-1
7.895828125e0,4.147812724e-1,-6.600474566e-2,-5.390490294e-1,6.833549491e-1
7.905861125e0,3.108803332e-1,-1.796313375e-1,-5.676053762e-1,6.716322373e-1
7.915893125e0,5.379077047e-2,-3.123984337e-1,-4.479282200e-1,5.487494134e-1
7.925926125e0,-2.641602755e-1,-5.061987638e-1,-1.970476806e-1,6.040245261e-1