Time (s),Gyroscope x (rad/s),Gyroscope y (rad/s),Gyroscope z (rad/s),Absolute (rad/s)
0.00197375,0.047816217,-1.051676154,-0.040775355,1.05355197
0.01200675,-0.158297807,-1.142825007,-0.053608328,1.154980972
0.02203975,-0.336843997,-1.174129486,-0.067343712,1.223347499
0.03207275,-0.483976185,-1.191597223,-0.071603969,1.288124225
0.04210575,-0.597764969,-1.148863792,-0.086772546,1.297975518
0.05213875,-0.664911568,-1.154112101,-0.067885675,1.333675597
0.06217175,-0.674381435,-1.405812621,-0.051574379,1.560051077
0.07220475,-0.643304229,-1.772496343,-0.05067423,1.886306309
0.08223775,-0.658038795,-2.045321226,-0.154144749,2.154092518
0.09227075,-0.739892125,-2.132681847,-0.263146877,2.272667704
0.10230375,-0.91366905,-1.953169703,-0.323476404,2.180435738
0.11233675,-1.167210102,-1.43667388,-0.278201312,1.871845941
0.12236975,-1.39460516,-0.986022055,-0.184609979,1.717918476
0.13240275,-1.569816351,-0.76705879,-0.10559798,1.75038667
0.14243575,-1.681125998,-0.774877965,-0.062765047,1.85217708
0.15246875,-1.765823364,-0.870443642,-0.039303396,1.969098536
0.16250175,-1.884937644,-0.902759373,-0.059432674,2.090812438
0.17253475,-2.092331648,-0.872328222,-0.115365982,2.26982765
0.18256775,-2.36498642,-0.890224755,-0.170484766,2.532730924
0.19260075,-2.542316914,-0.997830033,-0.17998825,2.737048745
0.20263375,-2.514722824,-1.002380133,-0.048660252,2.707575416
0.21266675,-2.30501318,-0.904660523,0.174227685,2.482307738
0.22269975,-2.008733034,-0.762123108,0.410046607,2.187230727
0.23273275,-1.682455182,-0.642497897,0.557200074,1.885187235
0.24276575,-1.398506403,-0.848914206,0.552665174,1.726822018
0.25279875,-1.212217808,-1.160319805,0.407244056,1.726748906
0.26283175,-1.102047324,-1.485071063,0.166432709,1.856783297
0.27286475,-0.987670124,-1.48434937,0.024905138,1.783088778
0.28289775,-0.815141618,-1.468073606,-0.007682011,1.679212609
0.29293075,-0.602201641,-1.503680587,0.006623691,1.619798134
0.30296375,-0.353979677,-1.745760798,0.032307457,1.781579678
0.31299675,-0.065642692,-2.224980593,0.022123262,2.226058634
0.32302975,0.220809653,-2.820698977,-0.100345597,2.831107355
0.33306275,0.455744416,-3.353309631,-0.272957057,3.395127982
0.34309575,0.634836078,-3.513629675,-0.370614171,3.589702662
0.35312875,0.784464717,-3.422566652,-0.324677587,3.52629592
0.36316275,0.830808997,-3.180000544,-0.121465676,3.288981751
0.37319575,0.677230895,-2.907699108,0.257967651,2.996648644
0.38322875,0.459939808,-2.503009319,0.626855791,2.620982347
0.39326175,0.212162778,-2.046136856,0.883829772,2.238938174
0.40329475,0.066527627,-1.937246799,0.792646408,2.094191829
0.41332775,-0.030316887,-1.744441748,0.591274917,1.842173215
0.42336075,-0.180762321,-1.469243646,0.395189017,1.532163916
0.433392917,-0.394194454,-1.133166909,0.351107568,1.250093211
0.443425917,-0.606619358,-0.673119068,0.390391469,0.986651825
0.453458917,-0.810696065,-0.078392312,0.434420437,0.923089693
0.463491917,-0.940987408,0.553446651,0.545843422,1.22053494
0.473524917,-0.923092306,0.675039649,0.685259104,1.333175897
0.483557917,-0.852562129,0.764627337,0.646175563,1.314937264
0.493590917,-0.659124196,0.879310787,0.463313401,1.192598622
0.503623917,-0.378263652,0.865267098,0.187241569,0.962720077
0.513656917,-0.032422367,0.77375555,-0.065618917,0.777209562
0.523689917,0.338467538,0.601524949,-0.217637628,0.723711736
0.533722917,0.679726839,0.458856195,-0.282700807,0.86746604
0.543755917,0.978566825,0.365800679,-0.295810521,1.085774853
0.553788917,1.250908852,0.28458333,-0.302968562,1.318161817
0.563821917,1.503945589,0.388316989,-0.346047103,1.591348804
0.573854917,1.764753222,0.798403859,-0.345286787,1.967492217
0.583887917,1.973139167,1.243792892,-0.268654138,2.347865834
0.593920917,2.036103725,1.384150505,-0.222111657,2.472028436
0.603953917,1.926855683,1.210278153,-0.319626421,2.29776132
0.613986917,1.657135487,1.05151403,-0.546685636,2.037313172
0.624019917,1.257006049,0.938904524,-0.824212432,1.772267487
0.634052917,0.762369871,0.89131707,-1.016149998,1.551842375
0.644085917,0.240869075,0.946896493,-1.083956003,1.459311995
0.654118917,-0.216745079,1.030186296,-1.069928288,1.50100259
0.664151917,-0.660460293,1.056310058,-0.815953791,1.489221047
0.674184917,-1.013186097,0.907962322,-0.437049568,1.428969549
0.684217917,-1.219220996,0.765223563,-0.135175884,1.445800628
0.694250917,-1.255846977,0.728531063,0.012199718,1.451915277
0.704283917,-1.154701352,0.763723493,0.012038276,1.384468745
0.714316917,-0.953317702,0.814755797,-0.080408037,1.256625283
0.724349917,-0.712109745,0.83536005,-0.079135083,1.10054035
0.734382917,-0.46920228,0.801081181,0.137594029,0.938516891
0.744415917,-0.245879412,0.679267526,0.394592106,0.82314275
0.754448917,-0.047277112,0.466749936,0.537817478,0.713679388
0.764481917,0.153185695,0.482287765,0.558260381,0.75347329
0.774515917,0.343947113,0.487874806,0.489143848,0.771740336
0.784548917,0.498416215,0.384757519,0.370006293,0.730316184
0.794581917,0.58140403,0.169951469,0.213846818,0.642374197
0.804614917,0.587982059,-0.175505117,0.009391888,0.613688157
0.814647917,0.518369913,-0.65156275,-0.186264962,0.853191667
0.824680917,0.40194872,-1.090699077,-0.350316167,1.214046402
0.834713917,0.249695525,-1.311184049,-0.426616251,1.401268315
0.844746917,0.081382401,-1.294577479,-0.40327239,1.358374973
0.854779917,-0.09314999,-1.090226769,-0.32678616,1.141954694
0.864812917,-0.265250772,-0.759378016,-0.194981679,0.827665874
0.874845917,-0.448371321,-0.44859165,-0.042013433,0.635638606
0.884878917,-0.615509927,-0.219064906,0.067261107,0.656784562
0.894911917,-0.743068695,-0.125631362,-0.00837213,0.753660678
0.904944917,-0.809177518,-0.08942762,-0.184858873,0.83482834
0.914977917,-0.824960172,0.077872425,-0.291711301,0.878475317
0.925010917,-0.803023934,0.237605661,-0.262287945,0.877552765
0.935043917,-0.768488348,0.313078582,-0.173668578,0.847793202
0.945076917,-0.734828174,0.30227527,-0.100948341,0.800957772
0.955109917,-0.69529438,0.314127117,-0.008457559,0.76300829
0.965142917,-0.647210002,0.355981916,0.119606309,0.748271061
0.975175917,-0.570807099,0.329818517,0.277249992,0.715170299
0.985208917,-0.46541205,0.122148477,0.436470509,0.649642311
0.995241917,-0.327946842,-0.229746178,0.504673004,0.644226108
1.005274917,-0.179252267,-0.450087398,0.468412071,0.673884196
1.015307917,-0.025091194,-0.476237774,0.365215927,0.600678499
1.025340917,0.123157747,-0.381350338,0.23620972,0.465178399
1.035373917,0.265811831,-0.28860122,0.144554377,0.418141796
1.045406917,0.396840602,-0.162925825,0.11982166,0.44540377
1.055439917,0.501233816,-0.097761199,0.155126125,0.533719688
1.065472917,0.5906142,-0.271034807,0.244183287,0.694197722
1.075505917,0.670975089,-0.493317157,0.354160935,0.904985832
1.085538917,0.692489803,-0.678450525,0.437121004,1.06344347
1.095571917,0.680537283,-0.890461087,0.464702576,1.213260247
1.105604917,0.634147048,-1.016567469,0.434793502,1.274596911
1.115637917,0.577904284,-1.008291125,0.36427778,1.217917344
1.125670917,0.510424495,-0.906054616,0.241014451,1.067499929
1.135703917,0.434432805,-0.729324579,0.121957302,0.857624502
1.145737917,0.375067025,-0.559968352,0.09861169,0.681149099
1.155770917,0.317777902,-0.423725277,0.22853215,0.576847336
1.165803917,0.28072536,-0.249575853,0.350680828,0.513879244
1.175836917,0.233217478,-0.170409128,0.339310735,0.445602332
1.185869917,0.185950562,-0.105423413,0.263452142,0.339262051
1.195902917,0.136086076,-0.018302627,0.130520731,0.189446741
1.205935917,0.061996654,0.171599671,-0.073230684,0.196603065
1.215968917,-0.057186726,0.375846535,-0.297328234,0.48263342
1.226001917,-0.252252817,0.144644558,-0.612222135,0.67776801
1.236034917,-0.471171588,0.314521462,-0.821637452,0.998005269
1.246067917,-0.719759405,0.519581616,-0.791379273,1.189243377
1.256100917,-0.982057035,0.514444888,-0.678664684,1.299875116
1.266133917,-1.203928113,0.251959682,-0.587029517,1.362912409
1.276166917,-1.351875544,-0.015691714,-0.557171762,1.462277022
1.286199917,-1.387894988,-0.094829559,-0.58289516,1.508314261
1.296232917,-1.302561402,-0.005777448,-0.708679199,1.482877538
1.306265917,-1.088903069,0.183915362,-0.82888478,1.380791343
1.316298917,-0.779900849,0.385404795,-0.871466577,1.231355426
1.326331917,-0.422512233,0.58738476,-0.707125843,1.011713596
1.336364917,-0.065624699,0.73055923,-0.347150594,0.81150288
1.346397917,0.253240377,0.691524506,0.044811461,0.737797328
1.356430917,0.507090211,0.495003134,0.304450482,0.771270822
1.366463917,0.684669852,0.300170511,0.360089034,0.829782655
1.376496917,0.768098176,0.178599328,0.256943762,0.829392925
1.386529917,0.75870645,0.106839843,0.086974569,0.771112706
1.396562917,0.665634871,0.042621713,-0.055599622,0.669311369
1.406595917,0.523458362,-0.025245136,-0.122823134,0.538267123
1.416628917,0.35171324,-0.091454513,-0.151697397,0.393799735
1.426661917,0.177441463,-0.196236297,-0.175973251,0.317743202
1.436694542,-0.007810407,-0.201057941,-0.166844472,0.261385493
1.446727542,-0.183093101,-0.094505496,-0.105576724,0.231518503
1.456760542,-0.314948589,0.059131995,-0.02870032,0.32173423
1.466793542,-0.384920716,0.165310651,0.045222536,0.421350978
1.476827542,-0.39918834,0.25972876,0.097927555,0.486210001
1.486860542,-0.360244006,0.377878457,0.140185237,0.540573559
1.496893542,-0.319730669,0.423441172,0.185879499,0.562211094
1.506926542,-0.304090351,0.39179799,0.213670999,0.540029538
1.516959542,-0.292220354,0.275826395,0.184754387,0.442274936
1.526992542,-0.299592882,0.205461562,0.086288132,0.373384507
1.537025542,-0.313652515,0.193584934,0.023796525,0.369349836
1.547058542,-0.338509351,0.175030738,-0.022533992,0.381748767
1.557091542,-0.353905618,0.092484199,-0.081581332,0.374777304
1.567124542,-0.376058757,0.007656613,-0.132443652,0.398773286
1.577157542,-0.398729473,-0.024044592,-0.161656931,0.430924934
1.587190542,-0.435962945,-0.067098126,-0.17595996,0.474897626
1.597223542,-0.508284509,-0.124588847,-0.189925045,0.55672888
1.607256542,-0.621516705,-0.22308737,-0.175888985,0.683365147
1.617289542,-0.760910332,-0.416556448,-0.081553422,0.87129488
1.627322542,-0.90516901,-0.649641931,0.095916301,1.118286865
1.637355542,-1.037554502,-0.884596169,0.328489602,1.402474651
1.647388542,-1.132760286,-1.056259036,0.533018768,1.637967651
1.657421542,-1.181432486,-1.040813565,0.65624696,1.705794732
1.667454542,-1.188448668,-0.849176049,0.667285323,1.605857995
1.677487542,-1.171899796,-0.514814854,0.599415481,1.413393924
1.687520542,-1.146098018,-0.158459574,0.495573372,1.25866718
1.697553542,-1.131476998,-0.04084719,0.37681824,1.193273094
1.707586542,-1.138532996,-0.195975572,0.294124603,1.192129645
1.717619542,-1.171647191,-0.443317443,0.255715966,1.278545326
1.727652542,-1.222617269,-0.533519089,0.265322626,1.360085181
1.737685542,-1.282204747,-0.24728626,0.302313119,1.340370371
1.747718542,-1.367054462,0.193557411,0.302599788,1.413459942
1.757751542,-1.480553389,0.481760442,0.290093601,1.583756849
1.767784542,-1.583508492,0.514309466,0.295704931,1.690992246
1.777817542,-1.638150811,0.316181988,0.288753033,1.693188543
1.787850542,-1.617927551,0.005865335,0.266845316,1.639795837
1.797883542,-1.525574446,-0.223314583,0.254932731,1.562765974
1.807916542,-1.369414449,-0.223401576,0.242316723,1.408517515
1.817949542,-1.143542647,0.06946332,0.216783136,1.165980217
1.827982542,-0.868823349,0.519218922,0.175376967,1.027228982
1.838016542,-0.558918774,0.876129925,0.099228673,1.043954104
1.848049542,-0.222872928,0.989507318,0.015755894,1.014418711
1.858082542,0.146366373,0.8131091,-0.068963259,0.829050936
1.868115542,0.542045355,0.469655275,-0.14184086,0.731100591
1.878148542,0.947611988,0.213139847,-0.240295514,1.000569342
1.888181542,1.334423542,0.195926324,-0.398293525,1.406311148
1.898214542,1.668861151,0.468868345,-0.561518669,1.822152102
1.908247542,1.923904777,0.90652585,-0.669402778,2.229640954
1.918280542,2.121251822,1.158784389,-0.692836463,2.514460761
1.928313542,2.308620453,1.000267625,-0.631379068,2.594012961
1.938346542,2.551229477,0.48588416,-0.502800345,2.645309707
1.948379542,2.918167353,-0.304890901,-0.351679713,2.955052923
1.958412542,3.455734968,-1.081816435,-0.21666038,3.627584967
1.968445542,4.163597107,-1.632413864,-0.078405209,4.472858512
1.978478542,5.022518635,-1.802064657,0.141075999,5.337886558
1.988511542,6.008424759,-1.591236949,0.432073623,6.230561028
1.998544542,7.097097397,-1.437937379,0.788168073,7.284069211
2.008577542,8.290142059,-1.696122646,1.18611455,8.544598008
2.018610542,9.640750885,-2.454139471,1.508921146,10.0619939
2.028643542,11.21468067,-3.689947367,1.60911119,11.91528485
2.038676542,13.00141811,-4.839764118,1.512950897,13.95525744
2.048709542,15.01101112,-5.383456707,0.888504863,15.97189726
2.058742542,16.8499527,-4.876674652,-0.70163101,17.55548768
2.068775542,18.25000381,-2.496603966,-1.996556282,18.5278684
2.078808542,19.08078194,0.749868393,-2.818672419,19.30242099
2.088841542,19.46119118,1.824666142,-2.883266449,19.75805137
2.098874542,19.51647186,1.417859077,-2.66352725,19.74835122
2.108907542,19.53888702,0.962748826,-2.482954979,19.7195349
2.118940542,19.55600929,0.529447198,-2.35246563,19.70410892
2.128973542,19.56054306,0.103918098,-2.271076441,19.69221755
2.139006542,19.54758263,-0.316163361,-2.236565351,19.67765663
2.149039542,19.51723289,-0.723118007,-2.251553774,19.65997899
2.159072542,19.47688866,-1.141223907,-2.308728933,19.64641985
2.169105542,19.42087364,-1.569074273,-2.413380623,19.63305206
2.179138542,19.35052299,-2.015054464,-2.571195602,19.62432754
2.189171542,19.26659203,-2.495419264,-2.7749722,19.6247078
2.199204542,19.16989708,-3.006908178,-3.034131765,19.64007145
2.209237542,19.05260849,-3.56465435,-3.351229429,19.67077501
2.219270542,18.90979004,-4.183639526,-3.730281115,19.72303212
2.229303542,18.72714806,-4.866150856,-4.176223755,19.79460389
2.239336542,18.49200058,-5.63048315,-4.697627544,19.89281605
2.249369542,18.18872833,-6.482815742,-5.298841953,20.02334798
2.259402542,17.800354,-7.433252335,-5.981264591,20.19607311
2.269435542,17.29221344,-8.479365349,-6.747478008,20.40707578
2.279468542,16.64042473,-9.62364006,-7.600576401,20.67092027
2.289501542,15.80962372,-10.86269665,-8.531599998,20.99358424
2.299535542,14.76173496,-12.16969872,-9.524625778,21.37121621
2.309568542,13.45932293,-13.51899433,-10.55539703,21.80213265
2.319601542,11.87043858,-14.85215569,-11.58945847,22.26677767
2.329634542,9.977692604,-16.10469246,-12.56585598,22.733592
2.339667542,7.7848382,-17.19986343,-13.43151474,23.16990712
2.349700542,5.318199635,-18.05351067,-14.12116718,23.52912785
2.359733542,2.64381361,-18.59212303,-14.57062817,23.76888711
2.369766542,-0.139810875,-18.76180077,-14.73831558,23.85880679
2.379799542,-2.922230005,-18.54338264,-14.60921478,23.78708945
2.389832542,-5.597818375,-17.95147324,-14.19440651,23.55996897
2.399865542,-8.055330276,-17.04731369,-13.53040028,23.20713213
2.409898542,-10.24387646,-15.90171528,-12.68416882,22.77475998
2.419931542,-12.11727142,-14.59212112,-11.71508408,22.29352957
2.429964542,-13.6807766,-13.20372486,-10.69083309,21.81274652
2.439997875,-14.9527607,-11.80561733,-9.659536362,21.360344
2.450030875,-15.96265888,-10.44305515,-8.661088943,20.94942341
2.460063875,-16.75862694,-9.153861046,-7.723348141,20.59841876
2.470096875,-17.37520409,-7.951007843,-6.86157465,20.30264637
2.480129875,-17.8439312,-6.850851536,-6.090538502,20.06077532
2.490162875,-18.20230484,-5.849593639,-5.40798378,19.86927114
2.500195875,-18.46843529,-4.944519043,-4.808338642,19.71424589
2.510228875,-18.66103363,-4.127361298,-4.294951916,19.58866763
2.520261875,-18.80035591,-3.393230438,-3.855324745,19.4892515
2.530294875,-18.89453697,-2.735287189,-3.488755226,19.40764634
2.540327875,-18.9525547,-2.132071733,-3.18735671,19.33660525
2.550360875,-18.97990417,-1.584774733,-2.950915098,19.27319832
2.560393875,-18.99105453,-1.077157259,-2.769776106,19.22217677
2.570426875,-18.98369598,-0.601743102,-2.641199589,19.17599393
2.580459875,-18.96485519,-0.142235711,-2.565971613,19.13818627
2.590492875,-18.93663788,0.307318807,-2.540263891,19.10873203
2.600525875,-18.89356995,0.760664463,-2.560052633,19.08139055
2.610558875,-18.84533119,1.2274611,-2.634175301,19.06808978
2.620591875,-18.78480911,1.713745832,-2.755515575,19.06302296
2.630624875,-18.70823097,2.224973679,-2.932231665,19.06689268
2.640657875,-18.61503792,2.761646509,-3.162813187,19.08270723
2.650690875,-18.49915123,3.353723049,-3.455193281,19.11555427
2.660723875,-18.35197449,4.000606537,-3.81092906,19.16567245
2.670756875,-18.16509819,4.699018478,-4.236744404,19.23542487
2.680789875,-17.9088707,5.455131054,-4.734584332,19.31068081
2.690822875,-17.58949661,6.274115562,-5.308838844,19.41490889
2.700855875,-17.188591,7.155226707,-5.956631184,19.54805323
2.710888875,-16.68059158,8.100195885,-6.682794094,19.71078501
2.720921875,-16.04946136,9.111311913,-7.479965687,19.91359088
2.730954875,-15.26225567,10.19424725,-8.340631485,20.15999153
2.740987875,-14.28322887,11.33888721,-9.250743866,20.44889367
2.751020875,-13.09403801,12.52992535,-10.19607925,20.79453997
2.761053875,-11.6636982,13.73138809,-11.14169312,21.18325282
2.771086875,-9.972894669,14.88391685,-12.05575466,21.59469448
2.781119875,-8.020954132,15.92319393,-12.88112354,21.9956167
2.791152875,-5.837412834,16.77505493,-13.56497288,22.34919116
2.801185875,-3.46197629,17.36042595,-14.06174278,22.60757128
2.811218875,-0.976173341,17.63640976,-14.32570362,22.74250751
2.821251875,1.550036669,17.56454659,-14.33176994,22.72257776
2.831284875,4.025403023,17.16080475,-14.08637142,22.56375299
2.841317875,6.36702919,16.46490097,-13.61169815,22.29148607
2.851350875,8.505048752,15.55808067,-12.94687557,21.9547561
2.861383875,10.40684986,14.54047203,-12.14431667,21.61509376
2.871416875,12.06306458,13.47128105,-11.24720955,21.29536717
2.881449875,13.47667122,12.39477825,-10.29952908,21.00789124
2.891483875,14.64850807,11.33027935,-9.332343102,20.73756607
2.901516875,15.6067009,10.2702322,-8.381105423,20.47656491
2.911549875,16.36544418,9.251811028,-7.454333305,20.22352234
2.921582875,16.93721962,8.267363548,-6.581128597,19.96321522
2.931615875,17.34570885,7.316648006,-5.77904892,19.69274892
2.941648875,17.61711884,6.423872471,-5.049661636,19.4197862
2.951681875,17.78247261,5.601987362,-4.401275635,19.1564564
2.961714875,17.89268684,4.872446537,-3.823515415,18.93431403
2.971747875,17.98226547,4.240746975,-3.316453457,18.77084628
2.981780875,18.04353905,3.689362764,-2.865579844,18.63846149
2.991813875,18.11325645,3.239493132,-2.463461876,18.56483287
3.001846875,18.19523239,2.887403011,-2.107874393,18.54310417
3.011879875,18.28860092,2.654667377,-1.778409004,18.56563818
3.021912875,18.396698,2.534714937,-1.46988523,18.62857589
3.031945875,19.13525391,5.101841927,3.663021088,20.13962404
3.041978875,19.66347122,22.22792816,8.930916786,30.99184031
3.052011875,16.70459747,10.8678627,1.691157103,20.00035072
3.062044875,3.562434196,-5.258529186,-2.366738796,6.778238646
3.072077875,-4.659553528,-10.02738571,-2.964644194,11.44766432
3.082110875,-5.401902676,-7.898283482,-3.829635143,10.30677155
3.092143875,-3.984070063,-2.854459286,-4.712852478,6.799391926
3.102176875,-3.892257214,-2.224633694,-4.662166595,6.467956296
3.112209875,-3.981478214,-2.001093626,-4.612406254,6.413332669
3.122242875,-4.053484917,-1.797876716,-4.563365936,6.362971737
3.132275875,-4.105097771,-1.595159888,-4.524701118,6.314212777
3.142308875,-4.144178867,-1.401231885,-4.485631466,6.265665083
3.152341875,-4.175590038,-1.214946032,-4.458453178,6.228117755
3.162374875,-4.201388359,-1.031693697,-4.431969166,6.193416401
3.172407875,-4.21934557,-0.85244137,-4.406518936,6.160108965
3.182440875,-4.229126453,-0.671764493,-4.390604973,6.133040854
3.192473875,-4.236412048,-0.489601582,-4.373000145,6.108193433
3.202506875,-4.236777306,-0.302962452,-4.365145206,6.090694612
3.212539875,-4.235377312,-0.117439359,-4.358607769,6.078624405
3.222572875,-4.229650497,0.065256953,-4.35674715,6.07251575
3.232605875,-4.213660717,0.249962613,-4.358849049,6.067699974
3.242638875,-4.197478294,0.429747045,-4.365481853,6.071320974
3.252671875,-4.170588017,0.606161833,-4.377695084,6.076631535
3.262704875,-4.137456417,0.777231038,-4.393970966,6.085196344
3.272737875,-4.098441601,0.949561656,-4.41412735,6.097820197
3.282770875,-4.049556732,1.119664431,-4.436751366,6.110427223
3.292803875,-3.990004539,1.286067605,-4.464149475,6.123947799
3.302836875,-3.928560734,1.452309728,-4.496057987,6.144699375
3.312869875,-3.859674454,1.612540841,-4.530164242,6.166016778
3.322902875,-3.779901981,1.772181153,-4.566816807,6.187414709
3.332935875,-3.690932512,1.926903725,-4.607211113,6.20985789
3.342968875,-3.594247103,2.084664106,-4.649511814,6.235575096
3.353001875,-3.490618467,2.238530397,-4.693715096,6.263098037
3.363034875,-3.376736164,2.38958168,-4.737402916,6.2893111
3.373067875,-3.259110689,2.537368774,-4.787358284,6.322882422
3.383100875,-3.128100157,2.679143667,-4.836951733,6.35286734
3.393133875,-2.986731052,2.818622828,-4.883955002,6.38108247
3.403166875,-2.843497276,2.954074144,-4.935336113,6.416352029
3.413199875,-2.68668437,3.084959984,-4.983844757,6.447787184
3.423232875,-2.526543617,3.211385012,-5.034048557,6.48367652
3.433265667,-2.356797934,3.331844568,-5.081596375,6.517538373
3.443298667,-2.179827929,3.447158813,-5.129060268,6.553000299
3.453331667,-1.99211514,3.558619738,-5.172500134,6.58688506
3.463364667,-1.798853159,3.664149284,-5.210846424,6.61927361
3.473397667,-1.600609899,3.766053677,-5.248260021,6.655024087
3.483430667,-1.393821597,3.861248016,-5.284305096,6.691476312
3.493463667,-1.177102327,3.949723244,-5.316246986,6.726690539
3.503496667,-0.959252238,4.029060364,-5.342538357,6.759897068
3.513529667,-0.733714581,4.104677677,-5.364749432,6.794648805
3.523562667,-0.500699937,4.17174387,-5.38087368,6.827001458
3.533595667,-0.266971529,4.221122265,-5.395768642,6.855907395
3.543628667,-0.031252731,4.264949322,-5.398587227,6.880080922
3.553661667,0.207934737,4.293736935,-5.397889137,6.900479756
3.563694667,0.447803766,4.306916237,-5.392972946,6.916228227
3.573727667,0.684183359,4.299787998,-5.379525185,6.920662895
3.583760667,0.914603293,4.28231144,-5.359643459,6.921016433
3.593793667,1.145171523,4.25261879,-5.336881638,6.919428445
3.603826667,1.359826803,4.214249611,-5.309628963,6.913840354
3.613859667,0.216043726,6.424546242,-4.9850564,8.134633158
3.623892667,-4.180923939,3.519198179,-3.315650463,6.392059042
3.633925667,-10.83513165,-8.125454903,0.009454839,13.54338158
3.643958667,-17.24293327,-17.37708282,3.674069405,24.75440448
3.653991667,-15.9943285,-11.6648035,5.574045181,20.5658981
3.664024667,-4.703426361,-2.060644627,3.065068007,5.980227228
3.674057667,2.704414845,0.976837754,0.071220078,2.876307346
3.684090667,4.355803013,1.408618212,-0.72248739,4.634567205
3.694123667,4.404191494,1.41476357,-0.400373757,4.643140943
3.704156667,4.089165688,1.371840358,0.140729189,4.315440498
3.714189667,3.746230125,1.851450205,0.588787735,4.220044906
3.724222667,3.467379093,2.410645962,0.860301495,4.30976222
3.734255667,3.266945601,2.804282188,1.011034012,4.422569606
3.744289667,3.160061598,2.968356133,1.100883245,4.473150048
3.754321667,3.104479551,3.029011011,1.164149404,4.490873503
3.764355667,3.062868357,3.063301325,1.218972921,4.50009695
3.774388667,3.022123575,3.099946737,1.27063489,4.511919071
3.784421667,2.979281902,3.137978077,1.324473977,4.52518048
3.794454667,2.931589127,3.178851128,1.377293468,4.538308781
3.804487667,2.887452602,3.220373869,1.432023287,4.556191511
3.814520667,2.840530157,3.257479906,1.484281301,4.569778758
3.824553667,2.789196253,3.299976587,1.534960747,4.585364294
3.834586667,2.735358,3.346503496,1.588698268,4.604913813
3.844619667,2.546220541,3.242908239,1.635934234,4.435760781
3.854652667,2.136301994,2.893699408,1.668376207,3.964941569
3.864685667,1.580672979,2.365657568,1.679807305,3.304030172
3.874718667,0.906542063,1.681455731,1.679244876,2.543418023
3.884751667,0.054377679,0.782749772,1.668372154,1.843670194
3.894784667,-0.97451359,-0.363463044,1.690753102,1.985051177
3.904817667,-1.594563484,-1.078221202,1.756847739,2.60609049
3.914850667,-1.587987781,-1.124165416,1.773525,2.632649615
3.924883667,-1.567431569,-1.14255476,1.784035683,2.635347495
3.934916667,-1.545632482,-1.164841652,1.792553782,2.638007753
3.944949667,-1.759564996,-1.950645328,1.734003663,3.147674518
3.954982667,-2.428017139,-4.151351452,1.587859988,5.064611086
3.965015667,-5.515302658,-5.03489542,1.888314605,7.702886949
3.975048667,-11.27587223,0.530997515,2.82028079,11.63534429
3.985081667,-14.20889664,7.287050247,2.368173599,16.14317475
3.995114667,-12.72263432,8.738537788,-0.158025324,15.43542803
4.005147667,-8.010918617,6.878911018,-2.203897953,10.78663062
4.015180667,-2.403571606,3.242347717,-1.125974536,4.190202124
4.025213667,1.842951775,-0.136524513,0.642937243,1.956649811
4.035246667,4.501730442,-2.681085587,0.945736647,5.324304152
4.045279667,5.91987133,-4.233996391,0.381690294,7.288160913
4.055312667,6.645569801,-5.111039162,-0.015169133,8.383707378
4.065345667,6.809672832,-5.429969788,-0.35704416,8.716862768
4.075378667,6.773126125,-5.481966019,-0.619761944,8.735633566
4.085411667,6.712833881,-5.549173832,-0.854549468,8.75132697
4.095444667,6.312384605,-5.020661354,-1.008217692,8.128329641
4.105477667,5.224171162,-3.320588589,-0.911299348,6.256895349
4.115510667,3.404853106,-0.348501951,-0.461003512,3.453549264
4.125543667,1.009703159,3.132174969,0.295218408,3.30411477
4.135576667,-1.168304801,5.360486031,1.088194251,5.593202421
4.145609667,-2.804338455,5.890527248,1.568243384,6.709844465
4.155642667,-4.113572121,5.325072289,1.729556918,6.94760661
4.165675667,-5.284164429,4.246210098,1.635807991,6.973418221
4.175708667,-6.211386681,2.754869461,1.28287673,6.91494056
4.185741667,-6.353899002,0.542758107,0.498125732,6.396463721
4.195774667,-6.038905144,-0.749324679,-0.043005191,6.085368703
4.205807667,-4.927120209,-0.105034657,-0.430465043,4.947003738
4.215840667,-2.784387827,1.920945287,-0.535458565,3.424844849
4.225873667,-0.281345457,2.498133421,-0.355089873,2.538880594
4.235906667,1.738677382,0.830408573,0.003899909,1.926808929
4.245939667,3.064633369,-1.473790288,0.26855126,3.411180922
4.255972667,3.640979767,-2.690215588,0.296047777,4.536699004
4.266005667,3.500114202,-2.579507351,0.115499593,4.34948247
4.276038667,2.876652241,-1.665589929,-0.103248663,3.325654554
4.286071667,2.008681297,-0.654588997,-0.230228186,2.125157012
4.296104667,1.06642735,0.026239397,-0.262920618,1.098673314
4.306137667,0.201768681,0.394183338,-0.186032489,0.480311557
4.316170667,-0.520743012,0.513590515,-0.054482043,0.733428111
4.326203667,-1.107438922,0.522210896,0.042587783,1.225128118
4.336236667,-1.554557323,0.569011211,0.066920497,1.65677415
4.346269667,-1.845206976,0.719968796,0.011114757,1.980723956
4.356302667,-1.91285038,0.972522438,-0.07855925,2.14731647
4.366335667,-1.691070318,1.042588592,-0.15063931,1.992335814
4.376368667,-1.170554757,0.836790681,-0.147049636,1.446388841
4.386401667,-0.481740683,0.378790349,-0.045730464,0.6145303
4.396434667,0.226903483,-0.20698227,0.062876113,0.31349682
4.406467667,0.78944695,-0.674761176,0.128033012,1.046385007
4.416500667,1.077945232,-0.87273258,0.123792395,1.392462795
4.426533667,1.090686083,-0.820899189,0.070544086,1.366911876
4.436566875,0.890375674,-0.601147175,0.017800685,1.074459692
4.446599875,0.565427423,-0.335737079,-0.018023092,0.657839181
4.456632875,0.204049811,-0.09863586,-0.032100365,0.22890127
4.466665875,-0.147095978,0.116859674,-0.030554663,0.190333911
4.476698875,-0.420608401,0.322164029,-0.031277388,0.53073474
4.486731875,-0.58215338,0.497706831,-0.050388765,0.767563466
4.496764875,-0.611560702,0.571568608,-0.073496602,0.840296922
4.506797875,-0.527094543,0.498085409,-0.08016143,0.729618796
4.516830875,-0.365332544,0.302619874,-0.053968985,0.477450843
4.526863875,-0.148883089,0.048411012,-0.003572389,0.156596815
4.536896875,0.081379704,-0.18182753,0.047646254,0.204826933
4.546929875,0.263153493,-0.326336741,0.07730668,0.426288345
4.556962875,0.365636945,-0.368750006,0.074426912,0.524601094
4.566995875,0.363927454,-0.325410008,0.049552992,0.490703948
4.577028875,0.289190203,-0.222593784,0.018897751,0.365425904
4.587061875,0.148103118,-0.085500374,-0.012234602,0.171448339
4.597094875,-0.001791977,0.062909991,-0.034077816,0.071569376
4.607127875,-0.134109795,0.183563963,-0.039135691,0.230678928
4.617160875,-0.216502845,0.244819134,-0.036205769,0.328817196
4.627193875,-0.236453921,0.225730389,-0.03106134,0.328373982
4.637226875,-0.197131217,0.163931549,-0.028341211,0.257948626
4.647259875,-0.120651342,0.07292787,-0.016441675,0.141935018
4.657292875,-0.02063743,-0.018620299,0.000756218,0.027806311
4.667325875,0.068632528,-0.09816625,0.017547449,0.121057629
4.677358875,0.124659523,-0.143537775,0.034043506,0.193137386
4.687391875,0.137338832,-0.148706168,0.037486441,0.205865763
4.697424875,0.112145141,-0.107910737,0.027825277,0.158099671
4.707457875,0.056423023,-0.036065836,0.01221729,0.068070289
4.717490875,-0.004500806,0.034274872,-0.006530191,0.035180499
4.727523875,-0.064495429,0.078551263,-0.0178931,0.103199439
4.737556875,-0.09317831,0.099461496,-0.023018761,0.138219571
4.747589875,-0.09344542,0.084367238,-0.019971039,0.127470466
4.757622875,-0.058852389,0.053347167,-0.012232835,0.080368938
4.767655875,-0.012356793,0.007846527,-0.006936607,0.016197988
4.777688875,0.037283305,-0.033791479,0.002050186,0.050359827
4.787721875,0.073118269,-0.065724112,0.009354704,0.09875956
4.797754875,0.082457565,-0.080324538,0.015139421,0.116105484
4.807787875,0.062829271,-0.065716565,0.014064569,0.09199998
4.817820875,0.026439171,-0.03222942,0.011227893,0.043172107
4.827853875,-0.016660895,0.008917218,4.10178E-05,0.018897193
4.837886875,-0.053887483,0.045206908,-0.008012155,0.070793502
4.847919875,-0.077080689,0.067652032,-0.011785321,0.103233347
4.857952875,-0.081315413,0.07161095,-0.012506777,0.109072196
4.867985875,-0.062328674,0.054401062,-0.005712521,0.082927511
4.878018875,-0.025618341,0.025302151,-0.000476559,0.036010073
4.888051875,0.014492859,-0.008706948,0.001358892,0.016961736
4.898084875,0.045586351,-0.040197998,0.004300777,0.060930216
4.908117875,0.06640508,-0.059529617,0.002474914,0.089216227
4.918150875,0.066096663,-0.062818117,0.002637475,0.091224126
4.928183875,0.051538497,-0.046119034,0.003542418,0.069251215
4.938216875,0.025281761,-0.021203931,0.004679445,0.033326736
4.948250875,-0.002514717,0.007496955,0.002306036,0.008236865
4.958283875,-0.030949736,0.02961872,-0.002791725,0.042929575
4.968315875,-0.047471188,0.043874089,-0.004121974,0.064772216
4.978349875,-0.054039128,0.042769104,-0.00576923,0.069157123
4.988382875,-0.045529798,0.034205712,-0.003275979,0.057041435
4.998415875,-0.027359879,0.016687524,-0.000704668,0.032055155
5.008448875,-0.004673742,-0.004994868,0.002989137,0.007465086
5.018481875,0.017277969,-0.019861635,0.003751315,0.026591072
5.028514875,0.030723471,-0.03030229,0.001790163,0.043189873
5.038547875,0.038466368,-0.030829296,0.003371709,0.049411288
5.048580875,0.029746648,-0.023352204,-0.001188155,0.037836493
5.058613875,0.016828049,-0.010520586,0.001822961,0.019929605
5.068646875,-0.003104912,0.007409945,-0.00085032,0.008079035
5.078679875,-0.014232796,0.014761893,-0.002994311,0.02072322
5.088712875,-0.022250241,0.018609095,-0.00108589,0.029026726
5.098745875,-0.022680575,0.016456336,-7.81477E-05,0.028021877
5.108778875,-0.015278586,0.004680635,0.001826279,0.016083496
5.118811875,-0.004571138,-0.008609246,-0.001597911,0.009877639
5.128844875,0.007421609,-0.011549642,-0.001284457,0.013788559
5.138877875,0.008579648,-0.00258108,0.003320824,0.009555114
5.148910875,0.009729601,-0.001976808,0.005046287,0.011137231
5.158943875,0.013896343,-0.009436475,0.00449713,0.017389066
5.168976875,0.009722105,-0.006794353,0.00845219,0.014564411
5.179009875,0.002562043,0.003336966,-0.002731728,0.005016148
5.189042875,-0.00633185,0.014876442,-0.011949727,0.020104647
5.199075875,-0.016060319,0.010280672,-0.012767218,0.022948375
5.209108875,-0.019027613,-0.012428901,-0.003458671,0.022988911
5.219141875,-0.00615824,-0.012848567,0.008963315,0.016833021
5.229174875,0.003394253,0.010412814,0.011998785,0.016245568
5.239207875,0.008900147,0.017901693,0.006286289,0.020957114
5.249240875,0.009500423,-6.23947E-05,-0.005814049,0.011138452
5.259273875,0.002879055,-0.009891558,-0.01279384,0.016426022
5.269306875,-0.005989271,-0.009982638,-0.006950598,0.013558586
5.279339875,-0.005851795,-0.001733282,0.004518702,0.007593842
5.289372875,-0.001551855,0.007514012,0.010964883,0.013382724
5.299405875,-0.001082118,0.009220237,0.004972455,0.010531337
5.309438875,0.001913139,-0.002554664,-0.00050407,0.003231176
5.319471875,0.000655023,-0.004664878,-0.007862628,0.009165755
5.329504875,-0.002055809,-0.001210758,-0.008605651,0.008930258
5.339537875,-0.002486585,0.000983295,-0.00163372,0.003133531
5.349570875,-0.000396536,-0.000267059,0.006946718,0.00696315
5.359603875,0.000765159,-0.001408189,0.006531958,0.006725692
5.369636875,0.003563076,-0.003973346,0.004441642,0.006943427
5.379669875,0.004707134,-0.002479765,-0.000103017,0.005321368
5.389702875,0.002862895,0.002890766,-0.002683886,0.004874006
5.399735875,-0.003878255,0.004239909,-0.00099149,0.005831016
5.409768875,-0.005198384,-0.000518095,-0.001337967,0.005392752
5.419801875,-0.004930931,0.000255618,0.003046908,0.005801989
5.429834875,-0.004385249,0.002029284,0.001712665,0.00512656
5.439867792,-0.002683489,0.006025624,0.001685767,0.006808162
5.449900792,-0.001431004,0.00637796,-0.0005931,0.006563376
5.459933792,0.000290147,0.000880897,0.000660894,0.001138835
5.469966792,-0.00054502,-0.002575087,-0.003944244,0.004741854
5.479999792,0.002138878,-0.002681265,-0.000453079,0.003459662
5.490032792,0.002040341,-0.000564052,0.002692646,0.003425127
5.500065792,0.003677387,0.000447683,0.003972562,0.005431836
5.510098792,0.000530329,-0.002232522,0.001522453,0.002753774
5.520131792,0.002869237,-0.002396439,0.001037261,0.003879607
5.530164792,-0.003601179,0.000538099,-0.001674636,0.004007798
5.540197792,-0.003872701,0.003805624,-0.002943298,0.00617605
5.550230792,-0.005141431,0.002737962,0.000886327,0.005892056
5.560263792,-0.005370365,0.002586797,-0.002136484,0.006332212
5.570296792,-0.002595085,0.000757738,0.002332034,0.003570296
5.580329792,0.001436548,-0.000280241,0.000873643,0.001704541
5.590362792,-0.000186648,0.000799138,-0.001228922,0.001477738
5.600395792,-0.001099019,0.000742456,-0.002021046,0.002417377
5.610428792,0.0021029,-0.002714594,6.76715E-05,0.003434499
5.620461792,0.000452334,-0.003168439,0.000439053,0.003230539
5.630494792,-5.57976E-05,0.001223113,0.000657166,0.001389599
5.640527792,0.000420642,0.001099543,-0.000416088,0.001248625
5.650560792,-0.002716295,0.001958146,0.001457445,0.003651951
5.660593792,-0.002221866,0.001807011,-0.000999355,0.003033264
5.670626792,-0.002490313,3.86718E-05,-0.002568224,0.003577559
5.680659792,-0.004150021,0.003471448,-0.000892726,0.005483665
5.690692792,-0.000923868,-7.4551E-05,0.000335524,0.000985731
5.700725792,-0.001690871,-0.000415589,3.13083E-05,0.001741477
5.710758792,0.001132612,-0.000325042,0.001206827,0.001686681
5.720791792,0.003060282,-0.002989692,-0.000854773,0.004362823
5.730824792,0.003245105,-0.002950543,0.001694404,0.004701853
5.740857792,0.000399191,-0.00210601,-0.000612029,0.002229173
5.750890792,0.002032774,0.000620001,-0.000965697,0.00233434
5.760923792,0.003607164,-0.002428848,0.001395216,0.004567008
5.770956792,-0.000287976,0.00206497,0.000549929,0.002156259
5.780989792,-0.001005023,-0.00029207,0.000457209,0.001142111
5.791022792,-0.002427151,0.001825675,-0.002214741,0.003758887
5.801055792,-0.00260466,0.002501462,-0.000265265,0.00362104
5.811088792,-0.003547152,0.002916383,-0.00097047,0.004693548
5.821121792,-0.003728223,0.002353959,0.000334374,0.004421829
5.831154792,0.000864931,-0.002326014,3.23711E-05,0.002481833
5.841187792,0.00135357,-0.001033924,-0.000661441,0.001827199
5.851220792,0.001677943,-0.00147015,0.002859258,0.003626595
5.861253792,0.00213021,0.000518657,-0.002066919,0.003013131
5.871286792,-0.001423512,-0.001041422,-0.002084762,0.002730784
5.881319792,0.000626163,0.001427308,0.000441998,0.001620078
5.891352792,-0.002465767,-0.00020947,-0.001404372,0.002845372
5.901385792,0.001321385,0.000232588,-0.000334046,0.001382658
5.911418792,-0.000498886,0.000740719,-0.000279717,0.000935839
5.921451792,-0.00026454,0.000665851,0.001341775,0.001521085
5.931484792,-4.85575E-05,-0.001394637,0.000943899,0.00168473
5.941517792,0.001195599,8.43173E-06,0.000747778,0.001410213
5.951550792,-0.002119238,0.002699289,-0.000803513,0.003524623
5.961583792,-0.001417376,-0.000684157,0.001411347,0.002113983
5.971616792,0.000225262,0.002218156,-0.00072797,0.0023454
5.981649792,-0.002308686,0.002264164,-0.002231429,0.003928835
5.991682792,-0.000670043,-0.000971576,-0.001025816,0.001563719
6.001715792,0.000212419,0.003083461,-0.001989971,0.003675981
6.011748792,-0.00050477,0.000387543,-0.000533222,0.000830246
6.021781792,0.00229075,-0.002349527,-0.002962273,0.004420732
6.031814792,0.003469199,-0.003932776,-0.000172878,0.00524709
6.041847792,0.009391367,-0.05381874,-0.050742701,0.074561895
6.051880792,0.05493515,-0.226313293,-0.205092862,0.310320253
6.061913792,-0.011027778,-0.159240797,-0.293052047,0.333704579
6.071946792,-0.008351567,-0.024711469,-0.211895674,0.213495157
6.081979792,0.020705808,0.141183764,0.019019336,0.143955968
6.092012792,0.116354302,0.103105098,0.299756169,0.337672542
6.102045792,0.186848208,-0.145723179,0.384307534,0.451486188
6.112078792,0.117356226,-0.256115735,0.230055645,0.363721532
6.122111792,-0.005578746,-0.251839608,-0.068440422,0.261033335
6.132144792,-0.112967782,-0.051633015,-0.263756394,0.291539232
6.142177792,-0.149583504,0.059870292,-0.338976264,0.375319309
6.152210792,-0.115624472,0.282749712,-0.136077717,0.334415256
6.162243792,-0.0614128,0.273706257,0.05133066,0.28516922
6.172276792,-0.044269234,0.197031438,0.138924971,0.245114872
6.182309792,-0.101730503,0.115626886,0.080622017,0.173834927
6.192342792,-0.185978547,0.065842815,-0.072086304,0.210046974
6.202375792,-0.163982481,0.033136193,-0.135654151,0.215384099
6.212408792,-0.066018097,-0.066035137,-0.103757471,0.139587396
6.222441792,0.073268026,-0.132751018,0.023837626,0.153490289
6.232474792,0.190233797,-0.169264019,0.116141453,0.279871475
6.242507792,0.201352552,-0.071657658,0.138129219,0.254474657
6.252540792,0.143463165,0.060719289,0.104106531,0.18736777
6.262573792,0.046915304,-0.062903583,-0.057088479,0.097041233
6.272607792,-0.103253953,-0.105851315,-0.162891865,0.21999918
6.282639792,-0.140509754,0.040507879,-0.08283034,0.168061728
6.292672792,-0.081795834,0.136171013,0.092633359,0.18388595
6.302706792,0.044330649,0.035860896,0.192402408,0.200673607
6.312738792,0.10937383,-0.162501723,0.094427906,0.217453613
6.322772792,0.083365999,-0.096266717,-0.027294021,0.130238758
6.332805792,0.039126106,0.001710982,-0.1479536,0.153049166
6.342838792,-0.044944018,0.154729709,-0.109505184,0.194814355
6.352871792,-0.100471988,0.232187226,0.020643493,0.253833966
6.362904792,-0.047636442,0.118397407,0.038543664,0.13331463
6.372937792,0.078265026,-0.054364517,-0.089036398,0.130416238
6.382970792,-0.48870042,0.662207127,-0.19899787,0.846726952
6.393003792,-0.499803126,0.55996573,-0.015950285,0.750745759
6.403036792,-0.297374606,0.082341023,0.22331439,0.380895021
6.413069792,-0.145461261,-0.393213272,0.327888757,0.532246835
6.423102792,0.296695471,-0.49107793,0.362343788,0.67858585
6.433135792,0.42466116,-0.373969406,0.132126302,0.581074502
6.443169417,0.022535875,0.387147903,-0.119147919,0.405693963
6.453202417,-0.51155442,1.147965193,-0.163226962,1.267341726
6.463235417,-1.026010156,1.198522091,-0.221028835,1.593111982
6.473268417,-1.384434819,1.29339397,-0.301642209,1.918467032
6.483301417,-1.460724354,1.731658459,-0.301494241,2.285444253
6.493334417,-1.270254374,1.675587773,-0.14289476,2.107500764
6.503367417,-0.876238883,1.353419423,-0.058523558,1.613370299
6.513400417,-0.432720006,1.129572034,-0.024098473,1.209859628
6.523433417,-0.095324993,0.770818889,-0.143940002,0.789916032
6.533466417,0.08160717,0.369497567,-0.256090522,0.456914147
6.543499417,0.133071899,0.146166399,-0.422618836,0.466561279
6.553532417,0.167755589,-0.19756566,-0.53373605,0.593336581
6.563565417,0.328841239,0.09406469,-0.583691716,0.676521061
6.573598417,0.605377793,0.377110511,-0.690822959,0.992940568
6.583631417,0.912243247,0.521278203,-0.857470214,1.356161449
6.593664417,1.290182352,0.489106983,-0.998529911,1.703190572
6.603697417,1.850966215,0.65416491,-1.140756249,2.270535725
6.613730417,2.332984447,0.865936279,-1.206571817,2.765588115
6.623763417,2.757929564,0.904890776,-1.111216068,3.108022513
6.633796417,3.101484776,0.855082214,-0.693680048,3.291134366
6.643829417,3.248566628,1.010176778,-0.08632651,3.403100722
6.653862417,3.222458363,1.479466081,0.434418947,3.572363028
6.663895417,3.093500376,1.850406766,0.787125587,3.689622808
6.673928417,3.024824142,1.903543711,0.928950369,3.692693941
6.683961417,3.055643559,1.996904373,0.878748536,3.754568367
6.693994417,3.080253124,2.244516611,0.791604578,3.892615051
6.704027417,3.023160696,2.352185726,0.842685103,3.922039835
6.714060417,2.950909615,2.390040636,0.871376932,3.896082591
6.724093417,3.054770708,2.615236044,0.69854337,4.08154952
6.734126417,3.115927935,2.205476999,0.422458231,3.840782036
6.744159417,3.190507412,1.796329021,0.017194983,3.661479369
6.754192417,3.243850946,1.668349266,-0.405013502,3.670149067
6.764225417,3.200061798,1.789182425,-0.744444847,3.741091738
6.774258417,3.028091669,2.027020693,-0.924438834,3.759353562
6.784291417,2.763669252,2.272497892,-0.941095173,3.699699249
6.794324417,2.437518358,2.377427816,-0.957874179,3.537114885
6.804357417,2.134106159,2.33439827,-1.102028131,3.34937164
6.814390417,1.976960182,2.211814642,-1.40446353,3.282226893
6.824423417,1.858552098,2.047220707,-1.826298356,3.313713055
6.834456417,1.676880836,1.654228687,-2.354334831,3.330359498
6.844489417,1.473462105,1.128269196,-2.920137644,3.459954597
6.854522417,1.322449207,0.611939311,-3.518311501,3.808130439
6.864555417,1.185716748,0.087348148,-4.176892281,4.342808196
6.874588417,1.032552242,-0.397676617,-4.902236462,5.025557994
6.884621417,0.927486122,-0.707316399,-5.587924004,5.708364185
6.894654417,0.837918699,-0.885189235,-6.110162735,6.230550247
6.904687417,0.735433698,-0.941491425,-6.418245316,6.528486942
6.914720417,0.620269001,-0.853133857,-6.543272018,6.627743184
6.924753417,0.51488483,-0.659758449,-6.568797112,6.621894222
6.934786417,0.418145746,-0.499466777,-6.557088852,6.589364699
6.944819417,0.379174381,-0.361439496,-6.605268955,6.626008579
6.954852417,0.417095929,-0.217257559,-6.669069767,6.685630966
6.964885417,0.547395229,-0.118946061,-6.720370293,6.743676043
6.974918417,0.619622588,-0.088830501,-6.788981915,6.817778116
6.984951417,0.575940192,-0.096880831,-6.896800995,6.92148517
6.994984417,0.378954947,-0.187917516,-7.027084827,7.039804047
7.005017417,0.063380308,-0.305831671,-7.190682888,7.19746278
7.015050417,-0.259692281,-0.374346018,-7.274990559,7.289242941
7.025083417,-0.492117703,-0.380898446,-7.183796406,7.210699984
7.035116417,-0.499972701,-0.177587688,-6.946393967,6.966627536
7.045149417,-0.330057591,0.108648382,-6.709954739,6.71894598
7.055182417,-0.053498704,0.398364604,-6.597836018,6.61006782
7.065215417,0.247776344,0.690006196,-6.628164291,6.668587822
7.075248417,0.434015453,0.825099349,-6.775878429,6.839713944
7.085281417,0.525767922,0.84708631,-7.035292625,7.105584385
7.095314417,0.63548404,0.936061978,-7.340943336,7.427617455
7.105347417,0.745841861,0.895311296,-7.636758327,7.725149846
7.115380417,0.880630016,0.726307333,-7.951048851,8.03257178
7.125413417,1.070855737,0.443190545,-8.264297485,8.345164036
7.135446417,1.221936822,0.089389607,-8.569281578,8.656425756
7.145479417,1.388634324,-0.099857338,-8.786366463,8.895982936
7.155512417,1.563697934,-0.134092554,-8.79980278,8.93866103
7.165545417,1.734372139,-0.109522469,-8.639174461,8.812228848
7.175578417,1.926775336,-0.034896173,-8.368135452,8.587163204
7.185611417,2.094199896,0.018288344,-8.030817986,8.299400291
7.195644417,2.211544991,0.001661964,-7.652602673,7.965755562
7.205677417,2.240716219,-0.109394245,-7.325018406,7.660853146
7.215710417,2.222888708,-0.213482842,-7.066037178,7.410512164
7.225743417,2.207983494,-0.237960681,-6.81191349,7.164773674
7.235776417,2.184921026,-0.283808589,-6.523593426,6.885615324
7.245809417,2.149263144,-0.322430521,-6.188738823,6.559251613
7.255842417,2.114182949,-0.249270827,-5.798192501,6.176644863
7.265875417,2.055985451,-0.121309027,-5.364408016,5.746187033
7.275908417,2.02643609,0.027553683,-4.886001587,5.289632685
7.285941417,2.039660215,0.275370717,-4.37615633,4.835988736
7.295974417,2.0558815,0.629216135,-3.826997519,4.389586734
7.306007417,2.075843334,1.025796771,-3.270786762,4.00742194
7.316040417,2.198522329,1.461027861,-2.674349546,3.75769189
7.326073417,2.442881823,1.85394752,-2.03296876,3.67936883
7.336106417,2.757171392,2.268291235,-1.4586097,3.856770861
7.346139417,3.194357395,1.74697268,-0.736203313,3.714542775
7.356172417,3.197130203,2.757556677,-0.409813255,4.241899017
7.366205417,3.263023853,2.614758015,-0.31236124,4.193072106
7.376238417,3.431705475,1.92153883,-0.197451964,3.938007265
7.386271417,2.667416573,1.397598028,-0.86140275,3.132156784
7.396304417,2.257727623,0.332025975,-1.604869127,2.789835153
7.406337417,2.253079653,-0.170080274,-2.038486242,3.043143339
7.416370417,2.409045458,-0.359465092,-2.114684582,3.225617158
7.426403417,2.512485266,-0.350195318,-1.990864158,3.224710695
7.436436417,2.598288536,-0.112569176,-1.706719518,3.110734101
7.446469,2.617734671,0.322951823,-1.378315091,2.976001542
7.456502,2.39744091,0.713855147,-1.241278052,2.792504842
7.466535,2.019492149,0.803642571,-1.120970368,2.445560159
7.476568,1.648793817,0.948105216,-0.970623136,2.135306494
7.486601,1.253152609,1.232705832,-1.100268602,2.073775814
7.496634,0.715146005,1.5722754,-1.484934688,2.277831155
7.506667,0.145691201,1.93975234,-1.833780646,2.673315643
7.5167,-0.390276641,2.025607109,-1.844834805,2.767456499
7.526733,-0.592815042,1.434827805,-1.253303885,1.995227088
7.536766,-0.802897215,1.397441268,-0.905856729,1.848800273
7.546799,-0.893767774,1.937311888,-0.701113522,2.245786801
7.556832,-0.991193414,2.142051697,-0.511289835,2.415008727
7.566865,-1.188083053,1.779649019,-0.359235704,2.169733224
7.576898,-1.317531586,1.512838602,-0.282561719,2.025934658
7.586931,-1.330559611,1.319330931,-0.338179499,1.904045261
7.596964,-1.249023557,1.095111251,-0.537432671,1.745898729
7.606997,-1.099900842,0.913056135,-0.859458506,1.667969512
7.61703,-0.967705607,0.738574862,-1.25893116,1.75124374
7.627063,-0.863070309,0.491168529,-1.615329742,1.896161137
7.637096,-0.702374637,0.18686296,-1.794237375,1.935855278
7.647129,-0.472834915,-0.224819094,-1.81626606,1.890221913
7.657162,-0.114227496,-0.711735249,-1.753478885,1.895864759
7.667195,0.343059599,-1.196817875,-1.653778434,2.070035271
7.677228,0.816430867,-1.645843863,-1.578492999,2.422189409
7.687261,1.242902398,-2.094040632,-1.567302942,2.895902459
7.697294,1.583838582,-2.501296759,-1.61142838,3.370716771
7.707327,1.799187422,-2.747650385,-1.688930392,3.693121158
7.71736,1.892994881,-2.657240391,-1.78856802,3.7206628
7.727393,1.877033591,-2.117110252,-1.889452219,3.40226992
7.737426,1.753471375,-1.102727175,-1.98576808,2.869484962
7.747459,1.510358095,0.250124037,-2.092245102,2.592534122
7.757492,1.250035405,1.667607188,-2.206990957,3.035508414
7.767525,1.07397306,2.966662645,-2.304132223,3.906856881
7.777558,1.036534905,3.757878542,-1.972444057,4.368820356
7.787591,1.251464844,2.955004692,0.48685208,3.245803742
7.797624,0.726420999,2.893877268,1.55575788,3.364906491
7.807657,0.10807319,2.609450817,1.44815135,2.986311389
7.81769,-0.60928601,2.361070633,1.059395552,2.658609206
7.827723,-1.228699923,1.769297957,0.715704679,2.269879281
7.837756,-1.595983028,0.789670408,0.725850224,1.922914384
7.847789,-1.787137985,-0.141837314,1.013017654,2.059170894
7.857822,-1.803013682,-0.925393641,1.300415635,2.4079644
7.867855,-1.678610563,-1.448652148,1.510415673,2.6828496
7.877888,-1.446519256,-1.305378318,1.666894436,2.564169957
7.887921,-1.112198472,-0.653592646,1.739933133,2.165995405
7.897954,-0.675403059,0.153955251,1.717655778,1.85208339
7.907987,-0.150451854,0.905307472,1.648766994,1.886968463
7.91802,0.315800548,1.610012054,1.548363447,2.255947288
7.928053,0.6147632,2.241056681,1.434398293,2.730891302
7.938086,0.729963839,2.608882904,1.339493632,3.022145001
7.948119,0.714805365,2.608995914,1.307164669,3.004411068
7.958152,0.627109349,2.243063688,1.341345072,2.687714168
7.968185,0.508499146,1.619899511,1.414674401,2.209965943
7.978218,0.415908992,0.846776903,1.502779722,1.77436138
7.988251,0.35400039,0.129959568,1.616953135,1.660344303
7.998284,0.335650146,-0.32876727,1.732236862,1.794824082
8.008317,0.346262276,-0.365405858,1.828080416,1.896126845
8.018351,0.380712122,-0.039005369,1.89401114,1.932289144
8.028384,0.425505042,0.352554232,1.98899889,2.064331759
8.038417,0.429656088,0.557197154,2.059668064,2.176535218
8.04845,0.363138109,0.63098973,2.025285006,2.152160933
8.058483,0.254547715,0.592934728,1.846039534,1.955563369
8.068516,0.129059121,0.429743022,1.58288157,1.645250554
8.078549,-0.001354277,0.207141936,1.31116581,1.327428113
8.088582,-0.168960214,0.049357086,1.058649063,1.07318289
8.098615,-0.358248889,0.022969687,0.824800432,0.899536339
8.108648,-0.509276569,0.085615732,0.613674521,0.80205305
8.118681,-0.572167099,0.159750953,0.452340752,0.74666439
8.128714,-0.556834519,0.224433005,0.37070182,0.70558819
8.138747,-0.516030371,0.257325977,0.374778569,0.687723039
8.14878,-0.467877865,0.298422217,0.45938772,0.720418346
8.158813,-0.454544216,0.33622843,0.589513779,0.816814849
8.168846,-0.463546127,0.346438736,0.727245748,0.929398293
8.178879,-0.453416556,0.309449553,0.811070621,0.979377941
8.188912,-0.411473304,0.306152582,0.837248623,0.981847718
8.198945,-0.329151273,0.355398983,0.823469162,0.955379745
8.208978,-0.235702068,0.426173508,0.79766351,0.934583543
8.219011,-0.158349216,0.50222677,0.777727902,0.939237399
8.229044,-0.124702856,0.532646298,0.737915456,0.918576128
8.239077,-0.131199643,0.556523383,0.702649653,0.905896328
8.24911,-0.145047933,0.552645147,0.686875701,0.893450497
8.259143,-0.146067917,0.507081389,0.677727997,0.858942728
8.269176,-0.101850361,0.446017981,0.659422398,0.802585468
8.279209,-0.01124882,0.426173419,0.630527735,0.76112781
8.289242,0.090426773,0.452278346,0.598810852,0.755848622
8.299275,0.175066561,0.489901632,0.534652114,0.745992488
8.309308,0.241388083,0.486608088,0.469797194,0.718167836
8.319341,0.288550526,0.456428349,0.465743601,0.713095608
8.329374,0.30733633,0.429738581,0.521764815,0.742542517
8.339407,0.144545272,0.438569069,0.638276517,0.787802689
8.34944,-0.188898578,0.294743717,0.745449364,0.823560129
8.359473,-0.395068258,-0.047246899,0.755018115,0.853442179
8.369506,-0.401544869,-0.238198161,0.656190276,0.805333673
8.379539,-0.238107741,-0.265619129,0.522384286,0.632561586
8.389572,-0.046365108,-0.305830657,0.428287625,0.528310897
8.399605,0.117133275,-0.39492166,0.42855528,0.594426572
8.409638,0.155074239,-0.474634171,0.476380348,0.690118723
8.419671,0.039273337,-0.605545878,0.53404659,0.808352625
