Time (s),Gyroscope x (rad/s),Gyroscope y (rad/s),Gyroscope z (rad/s),Absolute (rad/s)
0.008418125,0.196754083,-0.782161474,0.111310847,0.81417372
0.018451125,0.007125563,-0.830888033,0.124436766,0.840184626
0.028483125,-0.146511003,-0.900901079,0.146152452,0.92436398
0.038516125,-0.241900906,-0.95981127,0.131719977,0.998550888
0.048549125,-0.299330056,-1.029138684,0.083025403,1.074996805
0.058581125,-0.390693009,-1.060637236,0.017609913,1.130443489
0.068614125,-0.521315217,-1.035112977,-0.056550328,1.160356139
0.078647125,-0.673367381,-1.038979053,-0.16136995,1.248575734
0.088679125,-0.847037852,-1.040969372,-0.270261556,1.368989286
0.098712125,-1.078111887,-0.843167424,-0.329011708,1.407659494
0.108745125,-1.429092884,-0.480841488,-0.405062795,1.561278603
0.118777125,-1.823148608,-0.446439296,-0.423378408,1.924169475
0.128810125,-2.183180571,-0.593568027,-0.382452786,2.294530571
0.138842125,-2.477257729,-0.815285504,-0.286907881,2.623702048
0.148875125,-2.651659012,-1.119218111,-0.122958377,2.880809514
0.158908125,-2.542033911,-1.167467594,0.05191756,2.797787058
0.168940125,-2.116755486,-1.037288904,0.20667997,2.366292177
0.178973125,-1.5227108,-0.808068097,0.383421719,1.765965584
0.189006125,-0.915928423,-0.574377954,0.568307996,1.221396287
0.199038125,-0.16595535,-1.091938019,0.587182343,1.250860871
0.209071125,0.550696492,-1.560968637,0.554270685,1.745596089
0.219104125,1.116003871,-1.647277236,0.421184808,2.033810113
0.229136125,1.507580161,-1.304060221,0.283253551,2.013356296
0.239169125,1.745522141,-0.680792034,0.24104993,1.889028959
0.249202125,1.869482994,-0.193549946,0.240797728,1.894838197
0.259234125,1.888558149,0.001032863,0.154616505,1.894877097
0.269267125,1.72416389,0.044014409,0.028562695,1.724962091
0.279300125,1.405766487,-0.056646954,-0.095581889,1.410150414
0.289332125,0.98057586,-0.279564291,-0.24446404,1.0485456
0.299365125,0.515587628,-0.520283401,-0.409080684,0.838971052
0.309397125,0.088328026,-0.803294361,-0.571646392,0.989880431
0.319430125,-0.244882688,-1.109345317,-0.733259261,1.352140417
0.329463125,-0.499361336,-1.125950456,-0.805559278,1.471751311
0.339495125,-0.75533402,-0.874743521,-0.738765121,1.371670373
0.349528125,-0.955155611,-0.319540769,-0.517508328,1.132361874
0.359561125,-1.036653638,0.098162703,-0.209436834,1.062144279
0.369593125,-0.954793334,0.17948617,0.057631884,0.973225066
0.379626125,-0.743108213,0.069341019,0.20095709,0.772917683
0.389659125,-0.484458148,-0.088896595,0.230739504,0.543914535
0.399691125,-0.251067787,-0.264024973,0.19208239,0.411873603
0.409724125,-0.138043731,-0.309402317,0.204931051,0.395957827
0.419757125,-0.18725282,-0.187136859,0.282713741,0.387312383
0.429789125,-0.409158438,-0.070161179,0.437079608,0.602803287
0.439822125,-0.724617064,0.124724954,0.750703096,1.050800334
0.449855125,-1.045154691,0.340126961,1.089839578,1.54783235
0.459887125,-1.322360992,0.432710409,1.29995048,1.904139739
0.469920125,-1.530459642,0.406017601,1.345282793,2.077725392
0.479952125,-1.661628008,0.336904556,1.217726707,2.087431592
0.489985125,-1.718277097,0.215401515,0.972973108,1.986341024
0.500018125,-1.68210876,0.164407313,0.711354554,1.833724337
0.510050125,-1.557486415,0.288936585,0.486017019,1.656943217
0.520083125,-1.350915313,0.476700902,0.273796111,1.458485599
0.530116125,-1.096315145,0.721126497,0.091656432,1.31542055
0.540148125,-0.731985092,0.886133313,-0.176581949,1.162848059
0.550181083,-0.230372459,1.198001981,-0.420854002,1.290503122
0.560214083,0.338256627,1.368003011,-0.564930201,1.5182213
0.570246083,0.876407564,1.278844357,-0.647527635,1.680126526
0.580279083,1.262583256,0.924790919,-0.69864279,1.713900951
0.590311083,1.459697723,0.432723701,-0.645383298,1.653628388
0.600344083,1.477549791,0.04555203,-0.484929681,1.555758712
0.610377083,1.299014211,-0.639694273,-0.470437258,1.522484121
0.620409083,1.099890471,-1.004608631,-0.467969567,1.561407399
0.630442083,0.900172949,-0.685446441,-0.359410346,1.18714951
0.640475083,0.680710673,-0.635111928,-0.32062006,0.984647858
0.650507083,0.466345757,-1.021571755,-0.366148472,1.181165492
0.660540083,0.212727845,-1.270868182,-0.463100851,1.369241202
0.670573083,-0.071185827,-1.300171018,-0.554132462,1.415123628
0.680605083,-0.368956536,-1.352483749,-0.625470817,1.535107475
0.690638083,-0.672373831,-1.370075822,-0.674353659,1.668516462
0.700670083,-0.955152273,-1.174838185,-0.684567451,1.661683851
0.710703083,-1.197504044,-0.751789391,-0.644030869,1.553698485
0.720736083,-1.399581194,-0.186213106,-0.55363518,1.516579952
0.730768083,-1.532105684,0.363433272,-0.427694887,1.631672298
0.740801083,-1.588298082,0.693509161,-0.289213717,1.757068675
0.750834083,-1.544382811,0.751772702,-0.186761364,1.727761635
0.760866083,-1.432731152,0.722459257,-0.171462566,1.613711666
0.770899083,-1.285451651,0.700376511,-0.180669412,1.474976149
0.780932083,-1.102031469,0.665790319,-0.133545831,1.294443741
0.790964083,-0.880010545,0.602685928,-0.097459428,1.071049592
0.800997083,-0.638535619,0.499056995,-0.118045397,0.818975174
0.811030083,-0.387887299,0.254456669,-0.247093454,0.525604346
0.821062083,-0.134289384,0.003341344,-0.346385688,0.371520992
0.831095083,0.11462725,0.017293269,-0.285169929,0.307831694
0.841127083,0.306064337,-0.157554969,-0.217157602,0.407009055
0.851160083,0.436942667,-0.562138379,-0.330764621,0.785062855
0.861193083,0.538968384,-0.577237725,-0.339881688,0.859773152
0.871225083,0.61323607,-0.078629725,-0.132269368,0.632247022
0.881258083,0.598983347,0.201976895,0.110395476,0.641687524
0.891291083,0.445655137,0.161253348,0.254646152,0.538010972
0.901323083,0.18734023,0.195267245,0.321399361,0.42014665
0.911356083,-0.139587283,0.21923691,0.338784397,0.426994496
0.921388083,-0.511478782,0.152003273,0.307659775,0.615930253
0.931421083,-0.875150859,-0.000627726,0.265132517,0.914431338
0.941454083,-1.21100986,-0.168556541,0.249094993,1.247799865
0.951486083,-1.480483532,-0.294496477,0.269374162,1.533336917
0.961519083,-1.659804225,-0.392409176,0.319058627,1.735146517
0.971552083,-1.758724332,-0.491130054,0.353236884,1.859864592
0.981584083,-1.7906425,-0.527956843,0.386049688,1.906350795
0.991617083,-1.749322414,-0.412902683,0.377461791,1.836598742
1.001650083,-1.645910382,-0.203820825,0.342469454,1.693472539
1.011682083,-1.484193325,-0.05712793,0.299474329,1.515182596
1.021715083,-1.253782749,0.001827531,0.239067152,1.276372839
1.031747083,-0.96645838,0.014762537,0.221013591,0.991517393
1.041780083,-0.630089462,-0.036026608,0.199734405,0.661970149
1.051813083,-0.316345483,-0.040897828,0.183178052,0.367833245
1.061845083,-0.04056263,0.150388777,0.174947545,0.234240805
1.071878083,0.197472259,0.516931355,0.211352646,0.592353999
1.081911083,0.388695508,0.822718441,0.183383331,0.928212949
1.091943083,0.54087913,0.881220818,0.105177224,1.039308718
1.101976083,0.66914922,0.696916997,0.008010988,0.966187433
1.112009083,0.790332317,0.349113882,-0.062174972,0.866239806
1.122041083,0.891845644,-0.037854619,-0.098003276,0.898012398
1.132074083,0.955952525,-0.266997933,-0.122813292,1.00010811
1.142106083,0.950435758,-0.237889841,-0.181348234,0.996396953
1.152139083,0.847552299,-0.020960124,-0.229793817,0.878401631
1.162172083,0.671301126,0.202487618,-0.272081614,0.752113583
1.172204083,0.453473419,0.362328678,-0.305363953,0.655871448
1.182237083,0.213250443,0.419675857,-0.32075569,0.569638297
1.192270083,-0.017259587,0.466734856,-0.323364526,0.568070362
1.202302083,-0.235331997,0.464416325,-0.317352176,0.60973443
1.212335083,-0.437900901,0.400178552,-0.285743117,0.658444532
1.222367083,-0.618833899,0.332538009,-0.234346241,0.740577533
1.232400083,-0.77134496,0.299058408,-0.164627105,0.843511151
1.242433083,-0.887907803,0.300158828,-0.07766211,0.940482319
1.252465083,-0.937032938,0.344770432,-0.020077353,0.998649327
1.262498083,-0.900256276,0.433277398,-0.003976149,0.999102836
1.272531083,-0.796685278,0.479824662,-0.002487758,0.93002437
1.282563083,-0.642893314,0.430018753,0.005200788,0.77346945
1.292596083,-0.471331209,0.239672482,0.029649448,0.529598996
1.302628083,-0.303492665,-0.017975824,0.073617175,0.312810512
1.312661083,-0.139501616,-0.270931095,0.096271351,0.319581808
1.322694083,0.026240485,-0.671409309,-0.057742983,0.674398454
1.332726083,0.165540621,-0.705626547,-0.110738829,0.733195478
1.342759083,0.223817512,-0.250289112,0.055209134,0.34027484
1.352792083,0.19754687,-0.049023058,0.146128133,0.250562282
1.362824083,0.136241436,-0.213568062,0.059183381,0.260145572
1.372857083,0.040593401,-0.220637739,0.082316168,0.23896608
1.382889083,-0.060960121,0.004563413,0.219553113,0.227904652
1.392922083,-0.170553267,0.113594383,0.286918551,0.352582409
1.402955083,-0.283165574,-0.064999066,0.240954533,0.377447623
1.412987083,-0.386719823,-0.274648845,0.158120617,0.499986339
1.423020083,-0.506521046,-0.425748348,0.1107824,0.670893409
1.433053083,-0.630616903,-0.518965065,0.078812182,0.820496056
1.443085083,-0.740956187,-0.537194371,0.035110779,0.91587479
1.453118083,-0.846488953,-0.446806103,0.016115541,0.95730818
1.463151083,-0.91451329,-0.302354395,0.021524422,0.963439691
1.473183083,-0.93583101,-0.130983517,0.036426689,0.94565494
1.483216083,-0.935449898,0.021705084,0.06590575,0.938019824
1.493248083,-0.918058693,0.09863136,0.091276057,0.927842243
1.503281083,-0.907049716,0.096665151,0.123623081,0.920524852
1.513314083,-0.902218044,0.088642865,0.087372653,0.910762832
1.523346083,-0.895066619,0.023137363,-0.030839745,0.895896579
1.533379083,-0.896722078,0.044383176,-0.174586564,0.914636988
1.543410625,-0.958200037,0.289771378,-0.411424935,1.082305521
1.553443625,-1.098387003,0.41317606,-0.731393039,1.382788575
1.563476625,-1.272328734,0.454000711,-0.903176546,1.625012285
1.573508625,-1.434711337,0.396035582,-0.819401979,1.699017483
1.583541625,-1.574055433,0.207233995,-0.55825454,1.68292738
1.593574625,-1.683252931,-0.037624463,-0.219833925,1.697964365
1.603606625,-1.732582569,-0.156134337,0.083224215,1.74159311
1.613639625,-1.703917623,-0.102597743,0.234042481,1.722973431
1.623672625,-1.601507902,0.097979032,0.211910278,1.618435484
1.633704625,-1.440373182,0.341738135,0.093347192,1.483298202
1.643737625,-1.242492557,0.515094995,-0.02436506,1.345252491
1.653769625,-1.045007825,0.505090892,-0.067322396,1.162622238
1.663802625,-0.872571647,0.327920943,-0.002014761,0.932157435
1.673835625,-0.734084666,0.113928109,0.136778548,0.755359704
1.683867625,-0.617669642,-0.031105246,0.285532862,0.681184511
1.693900625,-0.527388632,-0.07781519,0.385835767,0.658075385
1.703933625,-0.460095853,-0.009235063,0.412780315,0.618191773
1.713965625,-0.424840987,0.062306836,0.363573104,0.562634347
1.723998625,-0.426435947,-0.016566673,0.250390649,0.494790409
1.734030625,-0.445489794,-0.234357402,0.143374622,0.523393571
1.744063625,-0.482207328,-0.490007281,0.099309422,0.694617452
1.754096625,-0.5123595,-0.682788074,0.121011838,0.862180768
1.764128625,-0.486620575,-0.680707872,0.16419819,0.852715566
1.774161625,-0.397474229,-0.552686632,0.17904824,0.70392226
1.784194625,-0.257252693,-0.378798217,0.139507219,0.478674525
1.794226625,-0.096818559,-0.244359255,0.059771359,0.269551283
1.804259625,0.060948431,-0.253190815,0.011119137,0.260660575
1.814291625,0.223025262,-0.361605644,0.059850216,0.429046568
1.824324625,0.403453887,-0.453734517,0.194116935,0.637441319
1.834357625,0.632791579,-0.401174456,0.297022849,0.805970657
1.844389625,0.944554508,-0.138702884,0.287433863,0.997015513
1.854422625,1.344763398,0.18544738,0.109003611,1.361859433
1.864455625,1.766604066,0.484280139,-0.070663087,1.833142234
1.874487625,2.217174053,0.671515822,-0.176037714,2.323313057
1.884520625,2.691397905,0.643467963,-0.187445626,2.773591456
1.894552625,3.11271143,0.529981077,-0.090304434,3.158798391
1.904585625,3.508424997,0.51115787,0.003636714,3.545467749
1.914618625,3.90758729,0.469256908,-0.014695408,3.935690083
1.924650625,4.386650562,0.533993006,-0.059152618,4.419428777
1.934683625,4.922375202,0.647329867,-0.081171408,4.965420665
1.944716625,5.561599731,0.637195528,0.019153329,5.598015413
1.954748625,6.420277119,0.417735994,0.285652995,6.440190935
1.964781625,7.526307583,0.030338444,0.672562599,7.556359355
1.974813625,8.915053368,-0.279131174,1.092375755,8.986065632
1.984846625,10.53575325,-0.20349206,1.435904622,10.63509885
1.994879625,12.29996109,0.067770936,1.607483625,12.40474261
2.004911625,14.18367767,0.446633577,1.631945848,14.28423751
2.014944625,16.04712105,0.393195301,1.098129153,16.08945568
2.024976625,17.96835518,-0.943365633,0.882909179,18.01475104
2.035009625,19.68436241,-3.177939892,0.750572443,19.95336524
2.045042625,20.65188599,-4.671061516,0.369508713,21.17677377
2.055074625,20.68502045,-4.806321144,-0.147456348,21.23658488
2.065107625,20.64921379,-4.862568855,-0.676063716,21.224789
2.075140625,20.59466934,-5.032638073,-1.214187026,21.23539737
2.085172625,20.51512337,-5.308862209,-1.783138633,21.2657915
2.095205625,20.39081955,-5.687105179,-2.37904501,21.30231308
2.105238625,20.20854378,-6.167386055,-3.023416996,21.34392051
2.115270625,19.96543503,-6.759812355,-3.728032589,21.40588438
2.125303625,19.64465714,-7.483959198,-4.494976997,21.49713975
2.135335625,19.22655106,-8.33319664,-5.333355427,21.62283774
2.145368625,18.6913929,-9.327759743,-6.255936146,21.80623781
2.155401625,18.00083923,-10.46282578,-7.265602112,22.05198201
2.165433625,17.12217712,-11.73484993,-8.357224464,22.37674805
2.175466625,15.99295998,-13.12042904,-9.51863575,22.7711408
2.185499625,14.57490349,-14.57938862,-10.72485161,23.23808999
2.195531625,12.81948566,-16.04751968,-11.92663479,23.75093089
2.205564625,10.69051552,-17.44211388,-13.06484318,24.27353674
2.215596625,8.204807281,-18.66188812,-14.06826687,24.76895362
2.225629625,5.397574425,-19.58584213,-14.84335804,25.16076906
2.235662625,2.354855776,-20.13793945,-15.3229723,25.41407939
2.245694625,-0.800041735,-20.24307251,-15.454566,25.48069194
2.255727625,-3.928860664,-19.88396263,-15.22041893,25.34697356
2.265760625,-6.890143871,-19.10258865,-14.65032959,25.04027022
2.275792625,-9.571084976,-17.96999359,-13.80324745,24.59788563
2.285825625,-11.90673161,-16.60119247,-12.75237751,24.08304344
2.295857625,-13.86620998,-15.09591579,-11.58751678,23.54631602
2.305890625,-15.46803474,-13.54640961,-10.38143253,23.03344207
2.315923625,-16.73572922,-12.03490448,-9.191510201,22.57005578
2.325955625,-17.72523308,-10.60722923,-8.054424286,22.17139937
2.335988625,-18.47529984,-9.293469429,-6.995818615,21.83224121
2.346021625,-19.04038048,-8.114683151,-6.0254879,21.55668518
2.356053625,-19.45726967,-7.067934036,-5.157541752,21.3340402
2.366086625,-19.75793839,-6.156412601,-4.376442909,21.15256008
2.376118625,-19.97463226,-5.369068146,-3.679961443,21.00844932
2.386151625,-20.12388039,-4.703824043,-3.059461594,20.89154919
2.396184625,-20.22304153,-4.14693594,-2.505361795,20.79531977
2.406216625,-20.2917881,-3.691546917,-2.003733635,20.72194806
2.416249625,-20.32960701,-3.322487831,-1.551615238,20.65767064
2.426282625,-20.35660172,-3.037210941,-1.134813786,20.61319204
2.436314625,-20.35955429,-2.820943117,-0.746821523,20.56761808
2.446347625,-20.36112213,-2.670411348,-0.381552756,20.53903536
2.456379625,-20.34807587,-2.592014313,-0.027590966,20.51252035
2.466412625,-20.32977676,-2.577294588,0.320878088,20.49500508
2.476445625,-20.29063988,-2.627091646,0.671371639,20.47101407
2.486477625,-20.238657,-2.739404917,1.029200077,20.44912783
2.496510625,-20.17314148,-2.916756153,1.407667994,20.43146184
2.506543625,-20.09717941,-3.176754236,1.806153893,20.42671241
2.516575625,-19.99962234,-3.510088444,2.237068415,20.42816903
2.526608625,-19.88336563,-3.927316666,2.709101915,20.44776952
2.536640625,-19.7381916,-4.445831299,3.2298913,20.48887068
2.546674375,-19.55422783,-5.061876297,3.812531471,20.55543271
2.556707375,-19.31388283,-5.792371273,4.462902069,20.65175851
2.566739375,-19.00274277,-6.648505688,5.193003654,20.79120361
2.576772375,-18.591259,-7.632470608,6.00663805,20.97544325
2.586805375,-18.04734039,-8.736215591,6.907136917,21.20699174
2.596837375,-17.34569168,-9.950415611,7.88984251,21.49728833
2.606870375,-16.44158745,-11.25350285,8.945813179,21.84020828
2.616902375,-15.28729153,-12.62428761,10.05859852,22.23171887
2.626935375,-13.84108162,-14.01683807,11.1883173,22.65448596
2.636968375,-12.08438206,-15.36429214,12.28839874,23.08892606
2.647000375,-10.00290203,-16.61300278,13.29671001,23.51281369
2.657033375,-7.607815266,-17.69165993,14.14126205,23.89244602
2.667066375,-4.959326267,-18.51256752,14.76000404,24.19024168
2.677098375,-2.129450083,-19.00639534,15.10330677,24.36980707
2.687131375,0.76951462,-19.12745094,15.128479,24.39922969
2.697163375,3.614027262,-18.85207558,14.83664036,24.26082941
2.707196375,6.294763565,-18.21166229,14.25790024,23.97032355
2.717229375,8.721889496,-17.2593689,13.44441319,23.55226989
2.727261375,10.84852314,-16.07570076,12.47024059,23.05700565
2.737294375,12.6571207,-14.75137711,11.39915657,22.53323327
2.747327375,14.16467857,-13.37109852,10.2986517,22.03376095
2.757359375,15.39249229,-12.01648808,9.213764191,21.59208779
2.767392375,16.3777256,-10.75351715,8.179881096,21.2315445
2.777424375,17.15893936,-9.610904694,7.210779667,20.94741112
2.787457375,17.77867126,-8.592146873,6.321845531,20.73335165
2.797490375,18.26418114,-7.692551613,5.511106968,20.57007445
2.807522375,18.62632751,-6.926044941,4.771034241,20.43704829
2.817555375,18.90035057,-6.27062273,4.090673447,20.32922946
2.827588375,19.10471535,-5.699526787,3.466993809,20.23597787
2.837620375,19.24475098,-5.19720459,2.900622129,20.14410545
2.847653375,19.32216835,-4.761042595,2.388474941,20.04291718
2.857685375,19.34592056,-4.384642124,1.920894384,19.92936437
2.867718375,19.33162117,-4.058170795,1.488575101,19.80899248
2.877751375,19.31024742,-3.790576696,1.092387557,19.70906994
2.887783375,19.29184341,-3.601763487,0.718796611,19.63834492
2.897816375,19.2785778,-3.473642588,0.362074256,19.59236721
2.907849375,19.28974533,-3.427963018,0.019928638,19.59197801
2.917881375,19.31389618,-3.471604347,-0.319806278,19.62602605
2.927914375,19.34186363,-3.60245347,-0.673705757,19.68601634
2.937946375,19.36945152,-3.779927969,-1.037842989,19.76210074
2.947979375,19.36622238,-4.025568485,-1.422679305,19.83128305
2.958012375,19.35626793,-4.338600159,-1.84946394,19.92257705
2.968044375,19.302742,-4.701454163,-2.312775373,20.00121121
2.978077375,19.2183342,-5.106917858,-2.817655563,20.08392796
2.988110375,19.05277061,-5.581208706,-3.366612673,20.13683291
2.998142375,18.81651306,-6.132518291,-3.967339993,20.18436848
3.008175375,18.49225807,-6.785021305,-4.620150089,20.23229867
3.018207375,18.06802559,-7.539401054,-5.331403732,20.29088423
3.028240375,7.133982658,0.815886736,-3.833278656,8.139619462
3.038273375,-34.1358223,15.64571381,1.75047648,37.59131405
3.048305375,-35.55144882,-1.89088881,1.944973826,35.65478786
3.058338375,-17.63493538,3.610597372,6.482386112,19.13239893
3.068371375,-10.80208969,2.487815142,3.474844456,11.61675126
3.078403375,-10.85657215,3.502440691,3.353210449,11.89017536
3.088436375,-11.50202179,4.577182293,2.978280544,12.73252756
3.098468375,-11.57581139,4.875946999,2.479213476,12.80315461
3.108501375,-11.05520916,4.290025711,1.893997192,12.00871332
3.118534375,-10.47783375,3.397037268,1.600882769,11.13048462
3.128566375,-9.880860329,2.23678875,1.417553186,10.22956899
3.138599375,-9.431623459,1.309170365,1.341590643,9.616096587
3.148632375,-9.262931824,0.920658588,1.329908967,9.403093963
3.158664375,-9.252196312,0.803361595,1.297396421,9.377193819
3.168697375,-9.248156548,0.691920817,1.266689062,9.360109782
3.178730375,-9.239506721,0.585304916,1.241461277,9.340893555
3.188762375,-9.245199203,0.477906823,1.225961328,9.338366261
3.198795375,-9.242162704,0.37706691,1.21390152,9.329164368
3.208827375,-9.240683556,0.274638534,1.203843594,9.322816007
3.218860375,-9.234941483,0.178223878,1.202878356,9.314656423
3.228893375,-9.232563019,0.079695977,1.206107497,9.311351494
3.238925375,-9.224416733,-0.017223746,1.216111183,9.304251025
3.248958375,-9.221587181,-0.118295237,1.22922802,9.303905923
3.258990375,-9.212773323,-0.2205908,1.246409416,9.299321966
3.269023375,-9.202654839,-0.322992533,1.27190733,9.295747873
3.279056375,-9.189238548,-0.430737257,1.301304817,9.290911361
3.289088375,-9.179255486,-0.544352233,1.338784814,9.292329923
3.299121375,-9.161727905,-0.658510745,1.38165319,9.288695288
3.309154375,-9.147996902,-0.77461201,1.428379655,9.291186121
3.319186375,-9.131743431,-0.894195795,1.482201338,9.294366305
3.329219375,-9.110980988,-1.02215004,1.542724371,9.297029835
3.339251375,-9.090821266,-1.148402572,1.609562278,9.303362322
3.349284375,-9.067696571,-1.286369443,1.682010412,9.31166078
3.359317375,-9.038397789,-1.426090598,1.7626158,9.318432456
3.369349375,-9.006123543,-1.568556666,1.849761844,9.326963609
3.379382375,-8.971878052,-1.721624255,1.947396755,9.340821162
3.389415375,-8.929543495,-1.877466559,2.047972202,9.351781534
3.399447375,-8.882507324,-2.038993359,2.158222198,9.365594126
3.409480375,-8.830514908,-2.200175524,2.273472548,9.380162221
3.419513375,-8.772442818,-2.367907047,2.399564028,9.397906378
3.429545375,-8.70555687,-2.544062853,2.532132864,9.416510662
3.439578375,-8.627985954,-2.722493887,2.671625376,9.43354105
3.449610375,-8.541413307,-2.905349731,2.818221807,9.451940145
3.459643375,-7.551129818,-1.279500961,2.353204489,8.012131776
3.469676375,-1.198521972,4.516497135,-0.370062828,4.687445763
3.479708375,6.595747948,7.343150616,-3.700670719,10.54138111
3.489741375,12.15572166,8.051733017,-4.849032879,15.36571162
3.499774375,13.04181576,5.68192625,-4.725183964,14.99001693
3.509806375,11.01505184,4.064351559,-3.928053141,12.38062689
3.519839375,7.607350826,4.502017021,-2.475776911,9.179837426
3.529871375,4.515884876,4.337435722,-1.404242039,6.417044535
3.539904375,2.265660286,2.879125595,-0.7745772,3.74466962
3.549937208,0.596416473,1.311327696,-0.35999921,1.484887998
3.559969208,-0.323636174,0.491248608,-0.165383875,0.611078877
3.570002208,-0.90640986,0.296383768,0.064915366,0.955843176
3.580035208,-1.24515748,0.018740453,0.298806369,1.280645775
3.590067208,-1.447327614,-0.365947038,0.439606905,1.556254699
3.600100208,-1.58996737,-0.865855873,0.514684021,1.882180191
3.610132208,-1.650956988,-1.386520267,0.561616898,2.227893841
3.620165208,-1.644869208,-1.817336679,0.600868225,2.523757108
3.630198208,-1.601023197,-2.188318491,0.679064512,2.795199762
3.640230208,-1.552692056,-2.518682718,0.815410852,3.069122043
3.650263208,-1.551170945,-2.756602049,1.010357738,3.320513351
3.660296208,-1.622230291,-2.646272659,1.231248021,3.339215746
3.670328208,-1.674110532,-1.73109889,1.402167559,2.786650912
3.680361208,-1.597537518,-0.269962847,1.379333377,2.127807939
3.690393208,-1.056818604,1.231938601,0.963444233,1.887528296
3.700426208,0.069228694,1.979467034,0.174220189,1.988324678
3.710459208,1.398453712,1.778978944,-0.67964679,2.362701553
3.720491208,2.180767536,0.462318331,-1.26343596,2.562373062
3.730524208,2.052496195,-1.230461359,-1.29281354,2.71995269
3.740557208,1.248022676,-1.847617984,-0.773213148,2.359896478
3.750589208,0.238578841,-1.131901145,-0.148040876,1.166205885
3.760622208,-0.565602303,-0.193131745,0.144443423,0.614873758
3.770654208,-1.010278463,0.236098439,0.129755557,1.04558192
3.780687208,-1.11723578,0.223893017,0.034945466,1.139984674
3.790720208,-0.953356564,0.10845083,0.016398147,0.959645362
3.800752208,-0.646319807,0.14221251,0.09146142,0.668071016
3.810785208,-0.314033449,0.316958755,0.208995238,0.492705662
3.820818208,-0.049205001,0.50054878,0.296783149,0.583995249
3.830850208,0.098231584,0.614885747,0.326761574,0.703211954
3.840883208,0.14736326,0.582201242,0.302028537,0.672231697
3.850915208,0.168960169,0.426540852,0.23353681,0.514804893
3.860948208,0.192712829,0.242496088,0.161860257,0.349487239
3.870981208,0.201976627,0.10806825,0.086600393,0.244893717
3.881013208,0.197111726,-0.047440417,-0.016098564,0.203378439
3.891046208,0.195490927,-0.29583025,-0.151663855,0.385660685
3.901079208,0.199749067,-0.554544687,-0.296565592,0.659826228
3.911111208,0.198077142,-0.717745006,-0.399412632,0.844939583
3.921144208,0.18196027,-0.721730113,-0.420085192,0.854678574
3.931177208,0.15131475,-0.610677361,-0.355806887,0.722787337
3.941209208,0.105476521,-0.430344105,-0.238549203,0.50321672
3.951242208,0.04896345,-0.18772161,-0.100171618,0.218337297
3.961274208,-0.006268646,0.057722047,0.031936325,0.06626507
3.971307208,-0.045321241,0.250780731,0.132306606,0.287141129
3.981340208,-0.068727463,0.382754683,0.193364412,0.434297603
3.991372208,-0.099349819,0.461279333,0.206285,0.514978165
4.001405208,-0.121448085,0.48324573,0.192588344,0.534196915
4.011438208,-0.139859051,0.43294102,0.176738545,0.488093222
4.021470208,-0.151727527,0.329346508,0.154586598,0.394192061
4.031503208,-0.155053556,0.194688022,0.122379132,0.277347585
4.041535208,-0.141896173,0.047092821,0.082225323,0.170626087
4.051568208,-0.097216047,-0.09413328,0.030710196,0.138762929
4.061601208,-0.036537454,-0.204922274,-0.022172419,0.209331651
4.071633208,0.028929172,-0.269558251,-0.079229049,0.282446083
4.081666208,0.081025161,-0.288921535,-0.128695399,0.326501509
4.091699208,0.117943764,-0.267530233,-0.160240531,0.333406935
4.101731208,0.144413307,-0.214282155,-0.158780038,0.303287233
4.111764208,0.161699086,-0.141585574,-0.132942051,0.252718535
4.121796208,0.172053605,-0.072012693,-0.090903334,0.207489005
4.131829208,0.163252398,-0.003756141,-0.042287059,0.168682096
4.141862208,0.126445189,0.051605295,0.000329395,0.136570864
4.151894208,0.05868692,0.087877549,0.032270819,0.110489927
4.161927208,-0.020220224,0.103258923,0.055723686,0.119064654
4.171960208,-0.093882464,0.1014525,0.068407252,0.154227361
4.181992208,-0.144957483,0.101425298,0.073816657,0.191699404
4.192025208,-0.166892871,0.098938443,0.074034229,0.207661053
4.202058208,-0.160755068,0.096337788,0.073064871,0.201150781
4.212090208,-0.132262185,0.077661306,0.067423232,0.167542401
4.222123208,-0.093869448,0.04967805,0.05430185,0.119281486
4.232155208,-0.044865422,0.016763244,0.031798936,0.057489867
4.242188208,0.007559894,-0.014804902,0.008138841,0.018508859
4.252221208,0.056164179,-0.040586431,-0.017759068,0.071533613
4.262253208,0.089989409,-0.062735781,-0.03959325,0.116625458
4.272286208,0.109672301,-0.07935071,-0.062177919,0.148965238
4.282319208,0.11168211,-0.083484262,-0.073359177,0.157556607
4.292351208,0.094455183,-0.086569801,-0.073761046,0.147840468
4.302384208,0.075597763,-0.07869868,-0.06393823,0.126477671
4.312416208,0.046559982,-0.06364356,-0.045462821,0.091023089
4.322449208,0.019074295,-0.036838576,-0.027840683,0.049960115
4.332482208,-0.004294411,-0.009788051,-0.00237394,0.010949133
4.342514208,-0.026724236,0.017543016,0.018529469,0.036949742
4.352547208,-0.047317129,0.041936774,0.034180868,0.071874442
4.362580208,-0.056905154,0.06529133,0.047334209,0.098699958
4.372612208,-0.059091344,0.079623401,0.054701045,0.11324256
4.382645208,-0.057778973,0.08546526,0.053640019,0.116275415
4.392678208,-0.047658429,0.074637376,0.049073763,0.101243755
4.402710208,-0.036201134,0.053119261,0.036563598,0.073953192
4.412743208,-0.02047064,0.024463115,0.023113307,0.039391827
4.422775208,-0.001472337,-0.006372266,0.001196033,0.006648613
4.432808208,0.01011055,-0.035707518,-0.016990695,0.040815852
4.442841208,0.031594902,-0.059092268,-0.033305466,0.074829059
4.452873208,0.042324249,-0.068402946,-0.044346668,0.091852773
4.462906208,0.047514535,-0.067993045,-0.044884123,0.094314738
4.472939208,0.050195806,-0.056735601,-0.045457765,0.088345661
4.482971208,0.046755917,-0.041202605,-0.037355907,0.072658339
4.493004208,0.03502842,-0.021805203,-0.025913635,0.04872344
4.503036208,0.026093403,-0.003654994,-0.010175963,0.028244909
4.513069208,0.010126953,0.017987452,0.005623241,0.021394496
4.523102208,-0.009012505,0.032476719,0.021126594,0.039778079
4.533134208,-0.025844483,0.036711678,0.031751275,0.054989345
4.543167208,-0.037569426,0.040526897,0.035572637,0.065721409
4.553200833,-0.048825011,0.039218485,0.041136514,0.074927859
4.563232833,-0.048094247,0.03277941,0.03555534,0.068203581
4.573265833,-0.04093061,0.019845769,0.026922438,0.052858179
4.583298833,-0.025649766,0.005153348,0.012061724,0.028808899
4.593330833,-0.006514954,-0.009133979,0.000737165,0.011243559
4.603363833,0.010846991,-0.015140206,-0.0128122,0.022606095
4.613395833,0.019827172,-0.015319969,-0.023283215,0.034204185
4.623428833,0.031311028,-0.023860788,-0.025639338,0.046979712
4.633461833,0.038883463,-0.027280286,-0.024978608,0.05366627
4.643493833,0.038346186,-0.018853355,-0.02721885,0.050663052
4.653526833,0.03525399,-0.015686857,-0.023157263,0.045002002
4.663559833,0.025448043,-0.018079191,-0.015548084,0.034874102
4.673591833,0.013544777,-0.01182529,-0.00275772,0.018190753
4.683624833,-0.003083439,0.00118661,0.001254364,0.003533988
4.693656833,-0.017271962,0.008475415,0.009655838,0.021526461
4.703689833,-0.028032841,0.006415168,0.017563554,0.03369678
4.713722833,-0.029075734,0.009364885,0.022062166,0.037680745
4.723754833,-0.025320789,0.022865485,0.022201972,0.040705041
4.733787833,-0.023649389,0.028397137,0.017755026,0.04099917
4.743820833,-0.016817464,0.016536668,0.014092881,0.027475403
4.753852833,-0.009804829,0.008840399,0.007866411,0.01536775
4.763885833,0.005086002,0.007378026,-0.000310786,0.008966564
4.773918833,0.016130399,0.005819811,-0.0059724,0.018158456
4.783950833,0.019330868,-0.004670493,-0.011153308,0.022801146
4.793983833,0.019301306,-0.016952991,-0.014046566,0.029278838
4.804015833,0.020857807,-0.019272719,-0.016964052,0.033079674
4.814048833,0.016642822,-0.017580813,-0.016295332,0.029182295
4.824081833,0.011637878,-0.015156355,-0.012360274,0.022758112
4.834113833,0.004091011,-0.01612548,-0.007285887,0.018161818
4.844146833,0.002960615,-0.013271527,-0.003926053,0.014153182
4.854179833,-0.002955864,-0.006820286,0.000189863,0.007435689
4.864211833,-0.005929553,0.004245336,0.004824849,0.008744235
4.874244833,-0.010030022,0.009952757,0.011505655,0.018221932
4.884277833,-0.013517211,0.012379482,0.012466541,0.02216712
4.894309833,-0.016612869,0.016547596,0.013020477,0.026820574
4.904342833,-0.00896746,0.018306701,0.01084466,0.023090199
4.914374833,-0.005472859,0.015655257,0.005896773,0.017601454
4.924407833,0.000254612,0.008390938,0.004406996,0.009481259
4.934440833,0.003687693,0.002447295,-0.002160093,0.004924869
4.944472833,0.007576823,-0.005037941,-0.006519962,0.011193704
4.954505833,0.010193379,-0.009337614,-0.00731891,0.01564169
4.964538833,0.012326837,-0.010637237,-0.007931437,0.01811103
4.974570833,0.011148388,-0.011833529,-0.009611626,0.018886565
4.984603833,0.010592205,-0.014631823,-0.009273396,0.020304702
4.994636833,0.005711962,-0.013057096,-0.007016367,0.015885329
5.004668833,0.002380614,-0.011032294,-0.002736401,0.011613214
5.014701833,0.00048178,-0.007465523,-0.001503624,0.007630664
5.024733833,-0.002333865,-0.002590496,0.002365941,0.0042137
5.034766833,-0.006203171,0.004053825,0.004430423,0.008633741
5.044799833,-0.011729116,0.003703195,0.005452002,0.013454001
5.054831833,-0.010009512,0.008450546,0.005373972,0.014159154
5.064864833,-0.009509391,0.01093129,0.005409972,0.01546575
5.074897833,-0.005215576,0.012332379,0.006922115,0.015073336
5.084929833,-0.001869409,0.008346574,0.003386731,0.009199453
5.094962833,0.000967656,0.008011282,0.001882045,0.008286078
5.104995833,0.004821439,0.004500451,0.000136881,0.006596899
5.115027833,0.006060342,-0.001457039,-0.003195266,0.007004316
5.125060833,0.009786181,-0.004236862,-0.00128259,0.010740828
5.135092833,0.007176816,-0.005389744,-0.005840323,0.010708193
5.145125833,0.009141417,-0.010254978,-0.006172388,0.015060825
5.155158833,0.008169364,-0.010089596,-0.005696747,0.014177143
5.165190833,0.002422923,-0.0105828,-0.006048592,0.012427859
5.175223833,4.23979E-06,-0.007693004,-0.00288236,0.008215249
5.185256833,0.001786123,-0.005378841,-0.001078864,0.005769412
5.195288833,-0.001811275,-0.001161193,0.002381914,0.003209767
5.205321833,-0.003808255,0.001597197,0.003182241,0.005213493
5.215353833,-0.002124871,0.003967943,0.00426961,0.006203968
5.225386833,-0.002676203,0.01039648,0.005158556,0.011910481
5.235419833,-0.003280474,0.009570101,0.005231527,0.011389347
5.245451833,-0.000310244,0.006655889,0.003916176,0.007728747
5.255484833,-0.004188073,0.006730457,0.004039214,0.008896867
5.265517833,-0.000553249,0.003665226,0.002157712,0.004289019
5.275549833,-0.000786275,-0.000183308,-0.001422642,0.001635769
5.285582833,0.002088192,-0.002375508,-0.000495867,0.003201479
5.295615833,0.003813921,-0.003680191,-0.000760586,0.005354277
5.305647833,0.002390905,-0.00613757,-0.005230155,0.00841075
5.315680833,0.00222499,-0.00783214,-0.004463431,0.009285214
5.325712833,0.003886437,-0.007041912,-0.002569142,0.008443542
5.335745833,0.003238756,-0.005716989,-0.00309485,0.00726303
5.345778833,0.004002706,-0.005440581,-6.65791E-05,0.006754703
5.355810833,7.10817E-05,-0.000762472,-0.003134541,0.003226726
5.365843833,0.002231806,0.00167346,0.000153154,0.002793722
5.375876833,0.001944451,0.00235949,0.002197929,0.003765498
5.385908833,-0.002007239,0.005077424,0.003766008,0.006632651
5.395941833,-0.000148886,0.005476899,0.002830439,0.006166845
5.405974833,-0.001564593,0.0053813,0.00402936,0.006902324
5.416006833,-0.003498847,0.005536029,0.003655186,0.007499995
5.426039833,-0.000903294,0.003136667,0.002823517,0.004315886
5.436072833,0.000899666,0.002123867,0.000423476,0.00234511
5.446104833,0.000337061,-0.000551157,-0.000191715,0.000673898
5.456137833,0.000758906,-0.000825197,0.000266083,0.001152253
5.466169833,0.001939822,-0.003034681,-0.002555569,0.004416235
5.476202833,0.001064441,-0.003295138,-0.003061304,0.004621964
5.486235833,0.003462759,-0.004965674,0.000276989,0.006060143
5.496267833,0.00366223,-0.004276714,-0.000641002,0.005666842
5.506300833,0.002449613,-0.002996521,-0.003199764,0.005021776
5.516333833,0.003329255,4.06266E-06,-0.003004289,0.004484385
5.526365833,0.003498978,0.00126053,-0.000628485,0.00377184
5.536398833,0.004276088,0.000964653,-0.000538737,0.004416528
5.546430833,0.001394389,-0.001178903,-5.48349E-05,0.001826784
5.556462833,0.002770711,0.004500555,-0.000263893,0.005291642
5.566495833,-0.001138385,0.003436067,0.002583553,0.004447159
5.576527833,-0.00775128,0.010843915,0.001748386,0.013443574
5.586560833,-0.049731754,-0.002723292,0.013772558,0.051675401
5.596593833,-0.041280214,-0.232530922,-0.034253024,0.238637707
5.606625833,0.098532014,-0.45928365,-0.054757234,0.472914774
5.616658833,0.259699613,-0.204273984,0.093872182,0.343487607
5.626691833,0.122706711,0.76263684,0.434245467,0.886138258
5.636723833,-0.279892683,1.358809471,0.862524867,1.633601004
5.646756833,-0.73551333,1.13197732,1.139415979,1.766528031
5.656789833,-1.021787405,0.793931842,1.109463334,1.70449
5.666821833,-0.807273626,0.244248703,0.660901845,1.071512662
5.676854833,-0.271364987,-0.114266574,0.026807141,0.295659312
5.686886833,0.227411434,0.051276028,-0.438683331,0.496777874
5.696919833,0.471295744,0.246595457,-0.603015542,0.804087521
5.706952833,0.357067525,-0.004686853,-0.552185178,0.657592317
5.716984833,0.049568281,-0.589347661,-0.352720499,0.688621398
5.727017833,-0.212369382,-1.023047686,-0.176275671,1.059622779
5.737050833,-0.270459026,-1.131536007,-0.071804389,1.165623305
5.747082833,-0.140087023,-0.719221652,-0.04576721,0.734165374
5.757115833,0.049980655,-0.066712558,-0.05637911,0.100634166
5.767148833,0.208601773,0.179343939,-0.076689444,0.285587498
5.777180833,0.250751883,-0.053450957,-0.114481561,0.280783795
5.787213833,0.16307199,-0.218876049,-0.129486859,0.302102707
5.797245833,0.027458772,-0.007045817,-0.12864317,0.13172962
5.807278833,-0.056826305,0.342983812,-0.110757381,0.364875762
5.817311833,-0.058577333,0.536574543,-0.066075668,0.543791814
5.827343833,-0.014792067,0.457851499,-0.019045046,0.458486111
5.837376833,0.024349211,0.222866684,0.024527997,0.225530631
5.847409833,0.031653117,0.038528539,0.057732828,0.076285304
5.857441833,0.047944207,-0.033237793,0.078565396,0.097856626
5.867474833,0.081392005,-0.044683337,0.06496758,0.11332275
5.877507833,0.100026138,-0.072383411,0.003347892,0.123514351
5.887539833,0.07483694,-0.143581301,-0.095600791,0.188031031
5.897572833,0.003305767,-0.247329533,-0.167531446,0.298746734
5.907605833,-0.07526914,-0.313039511,-0.143698558,0.352574042
5.917637833,-0.122724004,-0.26971069,-0.052219786,0.300885266
5.927670833,-0.124304168,-0.155630738,0.03830212,0.202828758
5.937702833,-0.103228182,-0.051077697,0.071027309,0.135313958
5.947735833,-0.075098366,-0.002015957,0.034569185,0.082697383
5.957768833,-0.032755435,0.010172533,-0.022494368,0.041017015
5.967800833,0.025445435,0.288012534,-0.079584815,0.299887367
5.977833833,0.096497774,0.858390808,-0.121320009,0.872275842
5.987866833,0.396074295,0.760419786,-0.125550702,0.866531059
5.997898833,1.314797997,-0.761949301,-0.188809305,1.531309722
6.007931833,1.148577929,1.710319757,0.074719526,2.061554738
6.017964833,1.056847453,2.712183237,0.267251968,2.92306142
6.027996833,0.913992167,2.053823709,0.292007387,2.266901371
6.038029833,0.683430076,1.010608912,0.027321378,1.220308772
6.048061833,0.543416679,0.665567696,-0.279396474,0.903517811
6.058094833,0.549611449,0.711117029,-0.399527669,0.983556065
6.068127833,0.579142332,0.418970406,-0.458230406,0.849068399
6.078159833,0.539883852,0.177900821,-0.50012219,0.757129764
6.088192833,0.516533017,0.136783689,-0.489673018,0.72477293
6.098225833,0.523128092,0.036367331,-0.501781106,0.725789131
6.108257833,0.434569716,-0.095304675,-0.501469731,0.67037729
6.118290833,0.237585813,-0.091987707,-0.393944055,0.469148884
6.128323833,0.017123137,-0.06319049,-0.283403456,0.290867253
6.138355833,-0.080885179,-0.096473344,-0.24278307,0.27348334
6.148388833,-0.013336501,0.111445762,-0.278633207,0.300390553
6.158421833,-0.126341358,0.134641364,-0.113775276,0.216876114
6.168453833,-0.208777636,0.315053105,0.069315188,0.384254025
6.178486833,-0.141129091,0.437154502,0.234037027,0.515552915
6.188518833,-0.39375627,0.297648132,0.388156533,0.627936227
6.198551833,-0.718438506,0.60964036,0.254129499,0.975908325
6.208584833,-0.957593501,0.974507809,0.183807686,1.378563037
6.218616833,-1.175098896,1.20442915,0.179547951,1.692260163
6.228649833,-1.441383362,1.295065165,0.254297554,1.954340559
6.238682833,-1.739881039,1.291463017,0.303992391,2.188029736
6.248714833,-2.036398888,1.458560824,0.310028493,2.523972618
6.258747833,-2.215259552,1.800431371,0.255103976,2.86600873
6.268780833,-2.29011178,2.249228954,0.055465415,3.21040796
6.278812833,-2.208665609,3.50032711,-0.498108298,4.168765468
6.288845833,-2.036356449,5.082564831,-0.681696773,5.51760123
6.298878833,-2.234229088,5.643657684,-0.975594401,6.14771796
6.308910833,-2.557310581,5.787499905,-1.21703124,6.443303314
6.318943833,-2.888362169,5.92797184,-1.420124173,6.745386484
6.328976833,-3.189727306,6.239325523,-1.70659399,7.212212304
6.339008833,-3.503884554,6.879882336,-2.223451376,8.034533212
6.349041833,-3.92461133,7.757572651,-2.652492762,9.089456825
6.359073833,-4.50303793,8.147584915,-2.733108997,9.70208098
6.369106833,-5.247290134,7.920353889,-2.598629236,9.849818952
6.379139833,-5.778441429,7.029150009,-2.074537277,9.332900949
6.389171833,-5.792895317,5.977687359,-1.28739202,8.42304936
6.399204833,-5.66062212,5.316251278,-0.551636457,7.785208617
6.409237833,-5.574214458,4.995038509,-0.096401602,7.485423823
6.419269833,-5.698307037,4.660887241,0.214550421,7.364822119
6.429302833,-6.048546314,3.979474306,0.495661438,7.257190126
6.439335833,-6.495794296,2.870923758,0.878912687,7.15611866
6.449367833,-6.680774689,1.773951888,1.658556581,7.108478436
6.459400833,-6.10718298,0.401448697,2.692520618,6.686442424
6.469433833,-4.939204693,-0.968035758,3.466248274,6.111277552
6.479465833,-3.832732677,-1.43875289,3.922591209,5.669794657
6.489498833,-3.21910429,-1.063408613,4.080496311,5.305084397
6.499530833,-3.173239231,-0.25181058,4.06932354,5.166454283
6.509563833,-3.575153828,0.842026949,3.878249645,5.341493666
6.519596833,-4.087199211,1.777348757,3.439136505,5.629549351
6.529628833,-4.41277504,2.548985481,2.815914631,5.822309314
6.539661833,-4.542022228,2.98485899,2.207234621,5.866108913
6.549694958,-4.443457127,2.964737892,1.925250292,5.678078081
6.559726958,-4.187945366,2.528588057,1.816879153,5.218591171
6.569759958,-3.93773365,1.746363759,1.737703323,4.644905329
6.579792958,-3.798705339,0.80568862,1.587296009,4.19509297
6.589824958,-3.79126668,0.079832524,1.29902029,4.00843236
6.599857958,-3.850087404,0.036101822,1.007574797,3.979909965
6.609890958,-3.964951277,0.428587794,0.865715683,4.080930013
6.619922958,-4.108002663,0.781544268,0.67983079,4.236586742
6.629955958,-4.240218163,1.083172083,0.376949698,4.392584991
6.639988958,-4.400261402,1.28935957,0.087901391,4.586117657
6.650020958,-4.534655571,1.27105689,-0.155620992,4.711995825
6.660053958,-4.562648773,1.335387468,-0.311374605,4.764239463
6.670085958,-4.506845951,1.581828833,-0.367061615,4.790467317
6.680118958,-4.375009537,1.844768047,-0.517099261,4.77611445
6.690151958,-4.167570591,2.137354851,-0.713257611,4.737685807
6.700183958,-3.956054926,2.425086737,-0.872055769,4.721429606
6.710216958,-3.80049777,2.77674818,-1.031816125,4.818584676
6.720249958,-3.625834465,3.06911087,-1.091833353,4.874240164
6.730281958,-3.371147394,3.274450541,-1.058595777,4.817394121
6.740314958,-3.084550858,3.153610945,-0.996101558,4.522381485
6.750347958,-2.778858662,2.724760294,-0.877490759,3.989531821
6.760379958,-2.487258911,2.319440603,-0.751761615,3.483016958
6.770412958,-2.220376015,2.02546072,-0.793580413,3.108428968
6.780445958,-1.972400784,1.949310184,-0.947535336,2.930528665
6.790477958,-1.826198459,1.834780455,-1.216370583,2.860240815
6.800510958,-1.717235208,1.735670686,-1.513877869,2.872851491
6.810543958,-1.62715435,1.757665515,-1.678024173,2.924514398
6.820575958,-1.389882445,2.218366861,-1.759398699,3.154109783
6.830608958,-1.050347805,2.56426239,-1.918609858,3.370420731
6.840640958,-0.744429827,2.747221231,-2.022609711,3.491754617
6.850673958,-0.448094338,2.092311621,-1.86609745,2.839168214
6.860706958,-0.501717329,1.113805175,-1.662249207,2.062851103
6.870738958,-0.91450429,1.130286813,-1.857422709,2.358788989
6.880771958,-1.246438265,0.75898999,-1.831025243,2.341437078
6.890804958,-1.257524371,0.081782609,-1.766067266,2.169573582
6.900836958,-0.967821121,-0.558523297,-1.81782198,2.133800072
6.910869958,-0.75076884,-0.601878703,-2.129914999,2.337188424
6.920902958,-0.57995826,-0.302653909,-2.597971916,2.679068691
6.930934958,-0.44711405,0.195564032,-3.029916763,3.068965926
6.940967958,-0.329554647,0.650958478,-3.352986336,3.431453129
6.951000958,-0.168702066,1.052610874,-3.508388042,3.666774699
6.961032958,0.016183097,1.036152363,-3.592888355,3.739347583
6.971065958,0.212581709,1.046010613,-3.599555016,3.754480723
6.981098958,0.433965236,1.085455537,-3.543240786,3.731098339
6.991130958,0.646148145,1.189617753,-3.434639454,3.691807958
7.001163958,0.841112554,1.448578715,-3.225071192,3.634134672
7.011195958,1.044694662,1.780083656,-2.88340807,3.546001531
7.021228958,1.277190924,1.8284235,-2.463644981,3.323235734
7.031261958,1.506069541,1.62088263,-2.060092211,3.023158263
7.041293958,1.620585918,1.637691259,-1.811922908,2.931108323
7.051326958,1.544530272,2.020996332,-1.751630187,3.088398978
7.061359958,1.332454801,2.374744415,-1.790211201,3.258788575
7.071391958,1.041815758,2.179000854,-1.765089035,2.991481923
7.081424958,0.734032154,1.584505796,-1.673647285,2.418792479
7.091457958,0.435768902,1.38353014,-1.611063004,2.16785013
7.101489958,0.171485335,1.634977579,-1.622571588,2.309826284
7.111522958,-0.151325911,1.772996902,-1.653915644,2.429373274
7.121555958,-0.515870571,1.721718788,-1.608184695,2.411782753
7.131587958,-0.792495012,1.684405446,-1.458889961,2.365085616
7.141620958,-0.862778485,1.532622337,-1.172888637,2.113997563
7.151653958,-0.727629781,1.392681718,-0.827709079,1.775981358
7.161685958,-0.39256686,1.448323607,-0.510437906,1.585022671
7.171718958,0.033230953,1.623359442,-0.281936586,1.647995271
7.181750958,0.438788563,1.74805057,-0.104348741,1.805299105
7.191783958,0.766467392,1.725157976,0.09547276,1.890173895
7.201816958,1.020078063,1.545358181,0.329269797,1.880720543
7.211848958,1.160385966,1.276540279,0.484024256,1.791739422
7.221881958,1.090319514,0.91163826,0.356519818,1.465260162
7.231914958,0.896495104,0.588304222,0.055007093,1.073699729
7.241946958,0.697232604,0.495723993,-0.096649013,0.860939378
7.251979958,0.490522385,0.659349859,-0.079735808,0.825658674
7.262012958,0.316131949,0.977947772,-0.002868457,1.027778907
7.272044958,0.215873569,1.193211436,0.063328937,1.214234526
7.282077958,0.19660987,1.27743125,0.14098458,1.300139489
7.292110958,0.239605322,1.083800197,0.243150637,1.136290372
7.302142958,0.294509858,0.873998463,0.336427331,0.981729453
7.312175958,0.355164438,0.56065309,0.407428265,0.778762773
7.322208958,0.405760765,0.242817312,0.379891187,0.606563566
7.332240958,0.440184087,0.068629675,0.288526118,0.53077244
7.342273958,0.41321665,0.056439057,0.182754129,0.45533772
7.352305958,0.352902263,0.104608178,0.109351024,0.38397985
7.362338958,0.278218448,0.146551371,0.037240081,0.316653806
7.372371958,0.149942502,0.152457967,-0.018216256,0.214611318
7.382403958,0.041325465,0.177568376,-0.029379696,0.184665884
7.392436958,-0.008222179,0.227196768,-0.037169177,0.230363893
7.402469958,-0.007108178,0.287798047,-0.066870876,0.29555026
7.412501958,0.008876757,0.363892198,-0.098817088,0.377175218
7.422534958,0.037326775,0.451063871,-0.106023073,0.464857824
7.432567958,0.089964561,0.526277065,-0.111361653,0.54540131
7.442599958,0.167934194,0.590890408,-0.126082271,0.627096569
7.452632958,0.268459618,0.629116058,-0.162885293,0.703128153
7.462665958,0.323556155,0.691323996,-0.173374414,0.782736316
7.472697958,0.325864047,0.738405406,-0.201127753,0.831794623
7.482730958,0.362976521,0.802547097,-0.179402217,0.898898745
7.492763958,0.395938993,0.754122019,-0.078002624,0.855308199
7.502795958,0.388627023,0.740192115,-0.003612282,0.836019365
7.512828958,0.363763988,0.714367688,0.021408651,0.801937505
7.522860958,0.091859773,0.972407222,-0.00669968,0.976759391
7.532893958,-0.179359302,0.992640853,0.031639718,1.009210926
7.542926958,-0.23573336,0.879650652,0.035698909,0.911388995
7.5529595,-0.102043346,0.595652461,0.078362741,0.609389381
7.5629925,0.130296946,0.318252325,0.063311353,0.349671509
7.5730255,0.376760453,0.037052467,0.022649407,0.379254954
7.5830575,0.563836634,-0.256067306,0.001300177,0.619260773
7.5930905,0.576052904,-0.440657645,0.020565754,0.725561203
7.6031235,0.465089351,-0.578522027,0.063953176,0.745040837
7.6131555,0.318421632,-0.704149663,0.049119107,0.774358942
