Time (s),Gyroscope x (rad/s),Gyroscope y (rad/s),Gyroscope z (rad/s),Absolute (rad/s)
0.014843792,-0.131887391,-0.375044942,-0.268888712,0.479952218
0.024876792,-0.246059,-0.275202036,-0.303619087,0.477980901
0.034909792,-0.385064572,-0.13887988,-0.274255872,0.492725714
0.044942792,-0.544455409,-0.043814674,-0.221277297,0.589334421
0.054975792,-0.756483793,-0.031245088,-0.07656087,0.76098985
0.065008792,-1.0075804,-0.092346266,0.115852386,1.01841439
0.075040792,-1.224696994,-0.263904691,0.271670997,1.281925717
0.085073792,-1.359561801,-0.545296133,0.304694593,1.496193489
0.095106792,-1.442722678,-0.915134668,0.238243118,1.725015933
0.105139792,-1.483501315,-1.392820835,0.079500623,2.036429812
0.115172792,-1.493662596,-1.886990666,-0.059496947,2.407343268
0.125205792,-1.469285131,-2.312627792,-0.197526097,2.747009767
0.135238792,-1.429462552,-2.616358042,-0.273063719,2.993869801
0.145271792,-1.336506844,-2.717726946,-0.269018501,3.040503453
0.155303792,-1.149492502,-2.553799152,-0.222793996,2.80942348
0.165336792,-0.882419586,-2.10061264,-0.140606329,2.282763223
0.175369792,-0.570102453,-1.342693448,-0.003405598,1.458716594
0.185402792,-0.26533249,-0.51150918,0.146699384,0.594612211
0.195435792,0.001235021,0.26289621,0.283423156,0.386580687
0.205468792,0.142470509,0.933983088,0.481219262,1.060280261
0.215501792,0.204708323,1.434777975,0.683338761,1.602324935
0.225534792,0.236142203,1.856927872,0.798360586,2.035024296
0.235566792,0.294369847,2.253852367,0.815615475,2.414898073
0.245599792,0.427511543,2.274151087,0.71220696,2.421108845
0.255632792,0.526189923,2.130467176,0.579117596,2.269613054
0.265665792,0.541243255,1.616670966,0.379730791,1.746643853
0.275698792,0.367085844,1.142226219,0.235591739,1.222675844
0.285731792,0.031152105,0.727660775,0.134865597,0.740708706
0.295764792,-0.342104316,0.34012267,-0.034128219,0.483615063
0.305796792,-0.684486628,-0.001804976,-0.22123228,0.719353128
0.315829792,-0.976200283,-0.206769571,-0.330175549,1.05106448
0.325862792,-1.234082341,-0.396800876,-0.337275594,1.33946444
0.335895792,-1.402258515,-0.591135979,-0.296780914,1.550435294
0.345928792,-1.449434876,-0.694953263,-0.249642581,1.626696934
0.355961792,-1.415321589,-0.696948469,-0.184039325,1.588314465
0.365994792,-1.324987054,-0.625210702,-0.00582494,1.465098306
0.376027792,-1.17931664,-0.369463563,0.188581035,1.250141539
0.386059792,-1.006161213,-0.099554375,0.330424875,1.063697353
0.396092792,-0.784433782,-0.022087283,0.337564796,0.854268224
0.406125792,-0.527250469,-0.222898856,0.146490499,0.590877672
0.416158792,-0.243145272,-0.756641865,-0.115130186,0.803045139
0.426191792,0.059051007,-1.144609332,-0.272981256,1.178191967
0.436224792,0.33765465,-1.202881694,-0.32063508,1.289861189
0.446257792,0.525924146,-1.182766318,-0.262679666,1.320807699
0.456290792,0.638152957,-1.285932064,-0.174539953,1.446141302
0.466322792,0.706555486,-1.411068082,-0.107412204,1.581730435
0.476355792,0.80389905,-1.48121953,-0.238567024,1.702110221
0.486388792,0.910359859,-1.467386842,-0.488128722,1.794505187
0.496421792,0.949060619,-1.456674576,-0.684329152,1.86840126
0.506454792,0.901838779,-1.377820611,-0.696508944,1.78796743
0.516487917,0.756985962,-1.270810246,-0.522650599,1.568805303
0.526520917,0.545171738,-1.226461649,-0.298898369,1.375049321
0.536553917,0.335880846,-1.263399363,-0.242723763,1.329627285
0.546585917,0.099935971,-1.230226874,-0.272282302,1.263955305
0.556618917,-0.180217654,-0.856765389,-0.215331405,0.901605762
0.566651917,-0.502351761,-0.286321849,-0.159699842,0.599867929
0.576684917,-0.844940245,0.322242945,-0.184197456,0.922872275
0.586717917,-1.096331,1.044348717,-0.254283637,1.535339074
0.596750917,-1.25265801,1.773189783,-0.310783118,2.193157596
0.606783917,-1.361028314,2.336633682,-0.276147395,2.718181822
0.616816917,-1.36122942,2.531654358,-0.242004082,2.884577143
0.626848917,-1.21446979,2.281188726,-0.280857801,2.599546111
0.636881917,-0.950229585,1.822202921,-0.372367203,2.08854425
0.646914917,-0.625579238,1.332945347,-0.465628415,1.544312955
0.656947917,-0.323435605,0.936813891,-0.503906012,1.111823783
0.666980917,-0.128390774,0.57779932,-0.518334687,0.786770038
0.677013917,-0.061009604,0.52404052,-0.506142497,0.731109339
0.687046917,-0.065646395,0.481384933,-0.532657325,0.720947106
0.697079917,-0.011815123,0.230809167,-0.537084043,0.584697989
0.707111917,0.145641938,0.190649286,-0.433160037,0.495162945
0.717144917,0.322289914,0.177263439,-0.315166801,0.484379219
0.727177917,0.508186877,0.022889983,-0.214682758,0.552147208
0.737210917,0.698415399,-0.157038763,-0.052634474,0.717785226
0.747243917,0.850226402,-0.439278841,0.141677827,0.967431363
0.757276917,0.924698472,-0.739028275,0.326795757,1.228016906
0.767309917,0.936528683,-0.99018085,0.470220268,1.441752818
0.777342917,0.889865041,-1.205287814,0.57723856,1.605547527
0.787374917,0.756657183,-1.430972934,0.534612715,1.704706539
0.797407917,0.541552365,-1.552397609,0.341160417,1.679168761
0.807440917,0.324167758,-1.576746941,0.171066314,1.618789466
0.817473917,0.127385989,-1.624117851,0.157414153,1.636693374
0.827506917,0.012160166,-1.627164841,0.184633061,1.637651567
0.837539917,-0.001789472,-1.526074171,0.093479462,1.528935573
0.847572917,0.041102741,-1.350131869,-0.044098027,1.35147702
0.857605917,0.087750934,-0.918637514,-0.096943669,0.927897184
0.867637917,0.154252768,-0.431371182,-0.249234945,0.521529549
0.877670917,0.148281693,0.015297119,-0.424854189,0.450247204
0.887703917,0.0600143,0.235453114,-0.408946246,0.475685734
0.897736917,-0.08943218,0.361928731,-0.308737338,0.484055023
0.907769917,-0.29787448,0.279634625,-0.296575069,0.504857902
0.917802917,-0.498753548,0.199400783,-0.345865399,0.638857298
0.927835917,-0.70543915,0.299389035,-0.437832803,0.88259603
0.937867917,-0.946916997,0.428699374,-0.488865376,1.148661965
0.947900917,-1.205880642,0.671103716,-0.444492429,1.449862697
0.957933917,-1.463398218,0.990000486,-0.399794459,1.811483071
0.967966917,-1.664326191,1.103920937,-0.309225291,2.020951109
0.977999917,-1.7563169,1.069786429,-0.142669067,2.06141857
0.988032917,-1.704308271,0.884867013,-0.026490865,1.920509849
0.998065917,-1.509471893,0.725730896,0.009218927,1.674895734
1.008098917,-1.209954023,0.613205612,-0.015992763,1.356563905
1.018130917,-0.880117536,0.556148946,-0.059700027,1.042819553
1.028163917,-0.558074772,0.479857206,-0.085790798,0.740992882
1.038196917,-0.329662412,0.399029732,-0.036985446,0.518912282
1.048229917,-0.197983935,0.15170908,0.094869561,0.266858609
1.058262917,-0.07809642,-0.159471437,0.179412678,0.252426423
1.068295917,0.046240728,-0.311945498,0.196028188,0.371315565
1.078328917,0.170053482,-0.328960717,0.212236449,0.426822739
1.088361917,0.284518987,-0.234101549,0.195264786,0.416992717
1.098393917,0.397965133,-0.031264558,0.110966407,0.414327483
1.108426917,0.498072624,0.223957866,0.002782828,0.546114648
1.118459917,0.601207852,0.445150971,-0.113322213,0.756605705
1.128492917,0.703890562,0.574802876,-0.210748062,0.932885317
1.138525917,0.796894789,0.558690786,-0.224896103,0.998876847
1.148558917,0.853824675,0.50044626,-0.173874125,1.00483593
1.158591917,0.854625463,0.364073545,-0.150930732,0.941123964
1.168624917,0.784241855,0.12754938,-0.172059625,0.812962881
1.178656917,0.641695619,-0.17768003,-0.230486453,0.704604474
1.188689917,0.435475081,-0.425223023,-0.304544121,0.680588192
1.198722917,0.198215932,-0.547158539,-0.346844971,0.677475798
1.208755917,-0.047545619,-0.547573268,-0.381608635,0.669120483
1.218788917,-0.314239919,-0.487836659,-0.310001314,0.6578998
1.228821917,-0.580469787,-0.408530295,-0.15433532,0.726403171
1.238854917,-0.813157082,-0.438694865,0.010353507,0.924004772
1.248887917,-0.955339074,-0.499060154,0.143198073,1.087308361
1.258919917,-0.988587618,-0.554411829,0.200548708,1.151042023
1.268952917,-0.905734777,-0.559868395,0.172333196,1.078659741
1.278985917,-0.740155637,-0.52167201,0.09318006,0.910304662
1.289018917,-0.503942311,-0.385971189,0.040766656,0.636076671
1.299051917,-0.239069372,-0.181321368,0.020648338,0.300762293
1.309084917,0.017991452,0.012983064,0.028086701,0.035792668
1.319117917,0.223275095,0.134543583,0.056295704,0.266688864
1.329149917,0.356849998,0.154810607,0.082619555,0.397660957
1.339182917,0.408934504,0.102650471,0.062074602,0.426166404
1.349215917,0.411027074,0.219466925,0.013355076,0.466140906
1.359248917,0.371786982,0.344489545,-0.065335475,0.511045331
1.369281917,0.307534724,0.430554569,-0.146945745,0.549133768
1.379314917,0.226117089,0.488942504,-0.200257167,0.574714401
1.389347917,0.142030314,0.535189211,-0.209991753,0.592196452
1.399380917,0.061566364,0.551894426,-0.184954047,0.585308359
1.409412917,-0.012133887,0.568018138,-0.133691892,0.583665451
1.419445917,-0.087086692,0.574067533,-0.078693077,0.585943875
1.429478917,-0.172533765,0.579063058,-0.010160441,0.604305519
1.439511917,-0.284750044,0.527174294,0.067230217,0.602922239
1.449544917,-0.404394895,0.430795282,0.128854319,0.604750562
1.459577917,-0.508288026,0.406264901,0.164862379,0.671258141
1.469610917,-0.585310221,0.372722626,0.153544188,0.710694047
1.479643917,-0.628932536,0.316374958,0.117370471,0.713740202
1.489675917,-0.648323596,0.210613012,0.092828184,0.687966858
1.499708917,-0.63944298,0.086011961,0.063402645,0.648309554
1.5097415,-0.618972361,0.014029787,0.012717145,0.619261935
1.5197745,-0.574296772,-0.011289151,-0.06921874,0.578563274
1.5298075,-0.508085966,-0.001504332,-0.163780048,0.533832854
1.5398405,-0.435562432,0.047396366,-0.233398542,0.496423133
1.5498735,-0.380069047,0.066481017,-0.260652035,0.465630422
1.5599055,-0.334696501,0.043337341,-0.27447626,0.435013897
1.5699385,-0.297472417,-0.06366048,-0.293452859,0.422678455
1.5799715,-0.271347612,-0.246740818,-0.319884747,0.486658822
1.5900045,-0.271785915,-0.4682163,-0.323379576,0.630609576
1.6000375,-0.313427627,-0.63510859,-0.286382943,0.76394698
1.6100705,-0.390447378,-0.657076001,-0.214258134,0.793791266
1.6201035,-0.52680707,-0.551629782,-0.134882882,0.774606027
1.6301365,-0.728376985,-0.37793538,-0.072285175,0.823767764
1.6401685,-0.97426343,-0.300517827,-0.010473212,1.019612614
1.6502015,-1.235013604,-0.308038533,0.076046988,1.2751194
1.6602345,-1.466573834,-0.35242942,0.179332912,1.518948847
1.6702675,-1.644938946,-0.329599947,0.271001816,1.699382901
1.6803005,-1.78202486,-0.216443837,0.331430256,1.825460641
1.6903335,-1.867552638,-0.111986831,0.364806384,1.906142073
1.7003665,-1.900829434,-0.073469266,0.365191758,1.936986136
1.7103995,-1.890188932,-0.128803387,0.344829649,1.925697795
1.7204315,-1.826001406,-0.273506761,0.3112216,1.872417145
1.7304645,-1.699346542,-0.452449292,0.25807941,1.777384037
1.7404975,-1.52196455,-0.565664232,0.1859999,1.634303545
1.7505305,-1.296003103,-0.545589864,0.098020613,1.40957454
1.7605635,-1.027370334,-0.393504679,0.018237904,1.100303756
1.7705965,-0.734400988,-0.26971072,-0.031528845,0.78299601
1.7806295,-0.442180514,-0.196957424,-0.039569724,0.485676433
1.7906615,-0.178380862,-0.311195046,-0.034444816,0.36034502
1.8006945,0.044192821,-0.528834701,-0.039382849,0.532137346
1.8107275,0.229151502,-0.607424915,-0.089221619,0.655313616
1.8207605,0.367928833,-0.534945905,-0.207550943,0.681627568
1.8307935,0.49902752,-0.332510799,-0.368844062,0.704015511
1.8408265,0.678740263,0.068436883,-0.47187829,0.829482412
1.8508595,0.958263338,0.467632234,-0.493542045,1.174960544
1.8608925,1.366989017,0.752400339,-0.487337947,1.634705942
1.8709245,1.923817039,0.899412274,-0.475051582,2.176163698
1.8809575,2.614390612,0.953877628,-0.433118492,2.816471627
1.8909905,3.399591446,1.033825636,-0.351226181,3.570627014
1.9010235,4.254464626,1.205613613,-0.228461936,4.427885308
1.9110565,5.188132763,1.474559784,-0.054389682,5.393886017
1.9210895,6.292262077,1.617943287,0.167319536,6.499099811
1.9311225,7.645945072,1.325148702,0.414723068,7.771003175
1.9411545,9.207277298,0.397864252,0.647038043,9.238555592
1.9511875,10.8705616,-1.018623829,0.926021039,10.95738194
1.9612205,12.56710625,-2.390007257,1.18356204,12.84698849
1.9712535,14.30730152,-3.359138966,1.303381085,14.75403313
1.9812865,16.08015442,-3.44166851,1.1842103,16.48692823
1.9913195,17.72154045,-2.976451635,0.392882198,17.97405399
2.0013525,18.97611427,-3.297415495,-0.463108093,19.26604087
2.0113855,19.71984291,-3.073289394,-1.129190803,19.989807
2.0214175,19.96821594,-1.810975671,-1.526421547,20.10818847
2.0314505,19.93709373,-2.049593925,-1.703385234,20.11442425
2.0414835,19.88331413,-2.368817329,-1.908567667,20.11467392
2.0515165,19.8319664,-2.742554903,-2.151608467,20.13598564
2.0615495,19.75567245,-3.154940844,-2.445615768,20.15493196
2.0715825,19.65143776,-3.621844769,-2.784258366,20.17545192
2.0816155,19.51259422,-4.138831615,-3.172024012,20.19735123
2.0916485,19.34143066,-4.720047951,-3.625877142,20.23652089
2.1016805,19.12508774,-5.384318829,-4.137998104,20.29489834
2.1117135,18.8485527,-6.136275768,-4.727710724,20.37824988
2.1217465,18.49318504,-6.987889767,-5.393839836,20.49199855
2.1317795,18.04446793,-7.950811386,-6.139026165,20.65201847
2.1418125,17.47110558,-9.030817986,-6.97179985,20.86626935
2.1518455,16.74607468,-10.21470356,-7.887518406,21.14199925
2.1618785,15.82216454,-11.49756813,-8.880349159,21.48012022
2.1719115,14.66671753,-12.85157585,-9.932858467,21.88463576
2.1819435,13.23253155,-14.23361588,-11.0106163,22.33672723
2.1919765,11.4982996,-15.58387089,-12.06923199,22.81960311
2.2020095,9.435423851,-16.8227787,-13.05611897,23.29152955
2.2120425,7.067938328,-17.86848068,-13.8971014,23.71429488
2.2220755,4.435547352,-18.63620758,-14.52865028,24.04296139
2.2321085,1.622148633,-19.05608749,-14.89408302,24.24045267
2.2421415,-1.265625834,-19.07472038,-14.94649982,24.2661209
2.2521735,-4.104459286,-18.69499207,-14.68718052,24.12597326
2.2622065,-6.78756237,-17.95012283,-14.14349556,23.83938714
2.2722395,-9.218226433,-16.90020752,-13.36387825,23.43471687
2.2822725,-11.34496784,-15.63074589,-12.42050838,22.96296019
2.2923055,-13.14250278,-14.23347855,-11.37825298,22.46735258
2.3023385,-14.6224699,-12.79252338,-10.29861069,21.9892397
2.3123715,-15.81268406,-11.36201763,-9.23537159,21.55060348
2.3224045,-16.75395775,-9.993858337,-8.221812248,21.17003782
2.3324365,-17.48219109,-8.720301628,-7.284180164,20.85017857
2.3424695,-18.04315186,-7.544615269,-6.428737164,20.58652982
2.3525025,-18.4638958,-6.483068943,-5.663440704,20.37204436
2.3625355,-18.7779808,-5.520779133,-4.990933895,20.1990343
2.3725685,-19.00701141,-4.660127163,-4.402153492,20.05896865
2.3826015,-19.17312241,-3.894538641,-3.901211977,19.94982478
2.3926345,-19.29744339,-3.20915103,-3.473565817,19.8684582
2.4026675,-19.38587952,-2.592408657,-3.110484123,19.80424244
2.4126995,-19.44651604,-2.034885406,-2.816479683,19.75450081
2.4227325,-19.48541641,-1.522159934,-2.575915098,19.71379624
2.4327655,-19.50309372,-1.043684125,-2.391410351,19.67685912
2.4427985,-19.50625038,-0.598337054,-2.261695385,19.64604482
2.4528315,-19.50257111,-0.174510404,-2.178837776,19.62468007
2.4628645,-19.48111153,0.236709356,-2.143284559,19.6000869
2.4728975,-19.45354271,0.639884889,-2.154716015,19.58296652
2.4829295,-19.41109467,1.04495132,-2.212474108,19.56470192
2.4929625,-19.35677147,1.455835223,-2.313595057,19.54883066
2.5029955,-19.2912674,1.894241095,-2.461984158,19.53976748
2.513029292,-19.20678902,2.353950739,-2.659678459,19.53242734
2.523062292,-19.109972,2.855809927,-2.911112309,19.54024706
2.533095292,-18.98495293,3.403637648,-3.215384722,19.55382023
2.543128292,-18.83492279,4.006529808,-3.587839603,19.58773062
2.553161292,-18.65380669,4.684241295,-4.021790981,19.64895476
2.563193292,-18.41799164,5.433395863,-4.529611111,19.72971321
2.573226292,-18.11489105,6.262645721,-5.11755085,19.83832997
2.583259292,-17.73139572,7.179641247,-5.783513546,19.98496114
2.593292292,-17.23760986,8.182403564,-6.537471294,20.16991455
2.603325292,-16.60827446,9.256402969,-7.371961594,20.39268482
2.613358292,-15.80928135,10.40061474,-8.281502724,20.6564627
2.623391292,-14.81295872,11.58365726,-9.247714996,20.95531184
2.633424292,-13.5952282,12.79328156,-10.25049305,21.29720382
2.643456292,-12.12047768,13.98979759,-11.25392437,21.66266903
2.653489292,-10.37708569,15.13463402,-12.21745968,22.04557496
2.663522292,-8.357012749,16.1739502,-13.08657169,22.42085381
2.673555292,-6.093371868,17.0369339,-13.81205177,22.76310769
2.683588292,-3.630200148,17.65249252,-14.33551693,23.02815431
2.693621292,-1.036867619,17.97020912,-14.61803627,23.18815419
2.703654292,1.589752913,17.936306,-14.62626362,23.19840457
2.713687292,4.153245449,17.54683304,-14.3666687,23.05519393
2.723719292,6.560006142,16.82990265,-13.86208439,22.7692048
2.733752292,8.746294022,15.840518,-13.16285992,22.37589218
2.743785292,10.67944717,14.65851974,-12.31875038,21.92428799
2.753818292,12.3361454,13.37113762,-11.38818455,21.46295767
2.763851292,13.72402382,12.06006241,-10.43031502,21.03771391
2.773884292,14.86803722,10.79344654,-9.480321884,20.67446546
2.783917292,15.79762363,9.60605526,-8.566819191,20.37723242
2.793950292,16.54063797,8.504755974,-7.711678505,20.1343876
2.803982292,17.12491417,7.490942955,-6.916588783,19.93028128
2.814015292,17.57463264,6.57722044,-6.184120655,19.75780579
2.824048292,17.92488289,5.759041786,-5.515641689,19.61862106
2.834081292,18.17351151,4.982291222,-4.913468838,19.4741347
2.844114292,18.33366203,4.249833107,-4.391735554,19.32541296
2.854147292,18.41359901,3.562426329,-3.936000586,19.16360119
2.864180292,18.43460846,2.908450603,-3.548355103,18.99696549
2.874212292,18.43448448,2.300773621,-3.228123903,18.8558893
2.884245292,18.42936134,1.73048234,-2.974944115,18.74796579
2.894278292,18.43550491,1.220162392,-2.779168367,18.68369381
2.904311292,18.43254662,0.748964727,-2.635712385,18.63509331
2.914344292,18.44675446,0.309991926,-2.538497686,18.62317952
2.924377292,18.48059654,-0.085585766,-2.488331795,18.647562
2.934410292,18.5276947,-0.446763724,-2.476976395,18.6978737
2.944443292,18.56539345,-0.781732678,-2.508695126,18.75042642
2.954475292,18.60972023,-1.078421116,-2.577095509,18.8182385
2.964508292,18.63302994,-1.32943356,-2.674257517,18.8708466
2.974541292,18.63982201,-1.594738603,-2.804581881,18.91697215
2.984574292,18.62290764,-1.900749683,-2.959762335,18.95219595
2.994607292,18.56036949,-2.22141695,-3.146566391,18.95581412
3.004640292,17.29235268,-0.89584291,-3.292981386,17.62588216
3.014673292,-10.97540665,33.76021576,-2.368824959,35.57840709
3.024706292,-34.7015686,34.67361069,-15.08135891,51.3215893
3.034738292,-21.97574234,5.110807896,-7.056097031,23.63984167
3.044771292,4.679908276,-1.072542548,4.950251102,6.896149285
3.054804292,4.371803761,5.943284035,1.34443903,7.499520621
3.064837292,1.941055655,5.804920197,0.227531895,6.125076841
3.074870292,1.632314801,5.287988186,0.111810096,5.535320421
3.084903292,1.619797111,5.176145077,0.157492638,5.425958391
3.094935292,1.607553363,5.080202103,0.205060676,5.332422629
3.104968292,1.58909452,5.012635231,0.248119727,5.264342005
3.115001292,1.574835539,4.962710857,0.29044801,5.214687534
3.125034292,1.558384299,4.919178009,0.331849784,5.170783131
3.135067292,1.541719198,4.880716801,0.375615567,5.132190724
3.145100292,1.519532084,4.852347374,0.414331555,5.101560882
3.155133292,1.495933533,4.829308033,0.4540959,5.07604534
3.165166292,1.465396881,4.812849998,0.493969291,5.055187315
3.175198292,1.436407924,4.805866241,0.53309983,5.044186107
3.185231292,1.402014613,4.79904747,0.572203338,5.032287577
3.195264292,1.366647959,4.790568352,0.608332694,5.018699079
3.205297292,1.329432249,4.790955067,0.64359051,5.013466795
3.215330292,1.29416728,4.789068699,0.676338673,5.006743648
3.225363292,1.257733703,4.794036388,0.70966655,5.006825898
3.235396292,1.217826486,4.79822731,0.742971361,5.00580594
3.245429292,1.173602581,4.798425674,0.773363113,5.000032248
3.255461292,1.134702921,4.802170753,0.803781807,4.999445955
3.265494292,1.090706706,4.808193207,0.831663013,5.00000264
3.275527292,1.046566844,4.816278934,0.861406386,5.003385443
3.285560292,1.006870508,4.819786549,0.886083484,5.002926597
3.295593292,0.962512016,4.828032017,0.909409642,5.006330835
3.305626292,0.913548708,4.832514763,0.932023883,5.005640688
3.315659292,0.864255071,4.840531349,0.956172585,5.00918622
3.325691292,0.813203633,4.844335556,0.974651515,5.007877066
3.335724292,0.762075365,4.850162506,0.994519413,5.009381604
3.345757292,0.708681107,4.855042934,1.013424993,5.010059982
3.355790292,0.656246066,4.863162994,1.028696895,5.01390372
3.365823292,0.599292457,4.866920471,1.045892596,5.013976231
3.375856292,0.543168187,4.874275208,1.054415703,5.016511034
3.385889292,0.482671589,4.879982948,1.068705916,5.018898064
3.395922292,0.428367794,4.890533924,1.078922749,5.026419732
3.405954292,0.364539266,4.899887085,1.08628583,5.032077029
3.415987292,0.305837423,4.910214901,1.092293978,5.039529049
3.426020292,0.245537341,4.92139101,1.096308708,5.047996716
3.436053292,0.18380259,4.933135986,1.101019502,5.057851124
3.446086292,0.124916628,4.943949699,1.100157738,5.066417851
3.456119292,0.066032469,4.953835487,1.103322744,5.075644531
3.466152292,0.004730496,4.960944176,1.101085186,5.081670796
3.476185292,-0.051111519,4.966097355,1.099548578,5.086623871
3.486217292,-0.109435551,4.965146065,1.09449017,5.085524586
3.496250292,-0.169049129,4.966106892,1.086219072,5.086321573
3.506283292,-0.307939112,5.187699795,1.08750093,5.309398641
3.516315542,-1.45104003,9.335394859,1.183606267,9.521346446
3.526348542,1.770522237,10.4454546,1.16628027,10.65844643
3.536381542,8.183354378,4.347754002,1.210496426,9.345349396
3.546414542,11.91717911,-1.025660396,1.542359591,12.06026576
3.556446542,12.5382967,-1.074647307,1.952873111,12.73489161
3.566479542,11.26273727,1.284417748,1.968856096,11.50544976
3.576512542,8.626059532,2.196357489,1.515585184,9.029390219
3.586545542,6.682417393,1.634024024,1.112470508,6.968667545
3.596578542,5.594117165,0.806928873,1.01767993,5.742904622
3.606611542,5.041462898,0.033773281,1.003475428,5.140471936
3.616644542,4.76701498,-0.400910228,1.004037261,4.888072386
3.626677542,4.63549757,-0.519261122,0.99258554,4.768930267
3.636709542,4.589241505,-0.537746608,0.985514224,4.724568476
3.646742542,4.585840225,-0.514083326,0.975139618,4.716472147
3.656775542,4.588562489,-0.470776051,0.963208675,4.712144602
3.666808542,4.590751171,-0.432351947,0.951752245,4.70826474
3.676841542,4.593173981,-0.38870433,0.945230484,4.705507299
3.686874542,4.596508503,-0.350616872,0.936760545,4.704077266
3.696907542,4.597243309,-0.308344096,0.93042028,4.700574861
3.706940542,4.60082674,-0.269459039,0.922186077,4.7000683
3.716972542,4.602118492,-0.229772195,0.919240236,4.698647943
3.727005542,4.603346348,-0.189200535,0.918210387,4.697840435
3.737038542,4.601677895,-0.151944533,0.91266799,4.693771346
3.747071542,4.600840569,-0.110433839,0.910737216,4.691414696
3.757104542,4.593762398,-0.077202179,0.912548602,4.68416034
3.767137542,4.3199296,-0.419276148,1.076728702,4.471792586
3.777170542,3.663027763,-0.965997279,1.397557497,4.037832351
3.787202542,3.238984108,-1.148213148,1.913203478,3.933161455
3.797235542,3.061971426,-0.901057482,2.518572092,4.065806068
3.807268542,2.650316477,-0.684997916,2.985950708,4.050839568
3.817301542,2.334342241,-0.448500633,3.454184294,4.193053261
3.827334542,2.416053295,-0.015067149,3.715649605,4.432109264
3.837367542,2.513685942,0.240162924,3.603769064,4.400391654
3.847400542,2.308335543,0.078041144,3.380696535,4.094339075
3.857433542,1.867960811,-0.124903426,3.353206873,3.840426381
3.867465542,1.552616477,-0.140585989,3.561391592,3.887658989
3.877498542,1.572324395,-0.129303828,3.84984231,4.160553965
3.887531542,1.829591036,-0.147251412,4.067748547,4.462697007
3.897564542,2.080378771,-0.191523448,4.174206257,4.667831931
3.907597542,2.230301619,-0.289193541,4.225880623,4.787060189
3.917630542,2.321297169,-0.423934758,4.287944794,4.894344877
3.927663542,2.356036901,-0.512600958,4.389893055,5.008475882
3.937696542,2.297047138,-0.433994055,4.540393829,5.106853485
3.947728542,2.175862789,-0.254448533,4.702331543,5.18758565
3.957761542,2.050483942,-0.0602169,4.860685349,5.275829084
3.967794542,1.942449689,0.083773561,5.047231197,5.408758782
3.977827542,1.868216515,0.158828393,5.322977543,5.643540496
3.987860542,1.99461472,-0.088541716,5.735226154,6.072820313
3.997893542,2.335422993,-0.656143725,6.296419621,6.747564389
4.007926542,2.742147684,-1.238741159,7.035952568,7.652351411
4.017958542,3.080288887,-1.536399126,7.890313625,8.608469725
4.027991542,3.332305431,-1.553665519,8.795475006,9.533022428
4.038024542,3.546936512,-1.566495299,9.601593018,10.3549628
4.048057542,3.612099409,-2.423806906,9.446009636,10.39948076
4.058090542,3.547418594,-3.801474333,8.402453423,9.881123889
4.068123542,2.979594469,-5.199185848,6.872114182,9.11786543
4.078156542,1.823353767,-5.988090038,4.739435196,7.851374863
4.088189542,0.564266086,-5.886687756,2.208079576,6.312456286
4.098221542,-0.440021932,-4.661365032,0.033914499,4.682210318
4.108254542,-1.004341245,-2.524570465,-1.333385229,3.026561339
4.118287542,-1.198194623,-0.364587039,-1.955259681,2.321989337
4.128320542,-1.362877488,0.748836398,-2.131353378,2.638343841
4.138353542,-1.539655209,0.701075554,-2.150687218,2.736329769
4.148386542,-1.612145901,0.025437972,-2.175743818,2.708047758
4.158419542,-1.580235243,-0.631637454,-2.122795343,2.720729565
4.168452542,-1.430269718,-0.741200447,-1.937111974,2.519415085
4.178484542,-1.196861148,-0.343629807,-1.608488679,2.034156799
4.188517542,-0.930048108,0.175641343,-1.109437227,1.458317635
4.198550542,-0.565210998,0.564794242,-0.495441943,0.940169521
4.208583542,-0.077478632,0.633812428,0.0641734,0.641747113
4.218616542,0.431058824,0.421026677,0.432978719,0.741987698
4.228649542,0.762203753,0.104107589,0.650856972,1.007674426
4.238682542,0.892852008,-0.116233826,0.788481236,1.196828171
4.248714542,0.857587516,-0.228483662,0.877070487,1.247763507
4.258747542,0.73131007,-0.417654335,0.894743085,1.228745193
4.268780542,0.530585468,-0.702996314,0.811477005,1.197589114
4.278813542,0.285895854,-1.022498727,0.634543419,1.236885377
4.288846542,0.021458883,-1.205121279,0.406211734,1.27192207
4.298879542,-0.202253461,-1.21413517,0.173214853,1.24299399
4.308912542,-0.295189798,-0.993886173,-0.045911375,1.037812409
4.318945542,-0.239304736,-0.60449636,-0.238910124,0.692647568
4.328977542,-0.121321909,-0.265116155,-0.370937407,0.471805194
4.339010542,-0.030280218,-0.080731317,-0.407729805,0.416746962
4.349043542,0.002710755,0.060718223,-0.351020187,0.356243207
4.359076542,-0.026224416,0.207348526,-0.257415473,0.331577829
4.369109542,-0.062608786,0.30852282,-0.186629966,0.365973954
4.379142542,-0.067384034,0.379418761,-0.162739262,0.418310018
4.389175542,-0.053503372,0.400810868,-0.143741861,0.429154617
4.399208542,-0.045669015,0.369728655,-0.081418753,0.381331811
4.409240542,-0.04398483,0.328291744,0.015963195,0.331609647
4.419273542,-0.020702494,0.273837507,0.111499488,0.296391142
4.429306542,0.02779367,0.160610542,0.177501678,0.240987718
4.439339542,0.083152391,0.019616833,0.205529243,0.222578997
4.449372542,0.12539199,-0.086120777,0.218384579,0.266142375
4.459405542,0.124191903,-0.143805563,0.214866236,0.28682951
4.469438542,0.091744751,-0.179119617,0.186823949,0.274598114
4.479470542,0.045626257,-0.204142138,0.117182553,0.239765549
4.489503542,-0.007955213,-0.234776214,0.014466295,0.235355964
4.499536542,-0.053707514,-0.247016698,-0.082828946,0.266011993
4.509569542,-0.087661482,-0.229508817,-0.151183754,0.288470727
4.51960275,-0.091446884,-0.186647624,-0.183088884,0.276986295
4.52963575,-0.068429187,-0.135467529,-0.182143733,0.237087209
4.53966875,-0.033458974,-0.070311382,-0.162725002,0.180395731
4.54970175,-0.009891598,-0.000914459,-0.139243111,0.139597005
4.55973375,-0.005697849,0.063364848,-0.101013124,0.119378477
4.56976675,-0.011757074,0.085447513,-0.048294518,0.098852752
4.57979975,-0.016490903,0.074043617,0.013865378,0.077114562
4.58983275,-0.017065082,0.056422275,0.079143181,0.098682994
4.59986575,0.005192895,0.061917834,0.12642993,0.140873389
4.60989875,0.038448319,0.077799328,0.149628207,0.172972856
4.61993175,0.069242455,0.08633256,0.150964454,0.187184654
4.62996475,0.083268523,0.08070077,0.133215293,0.1766142
4.63999675,0.068899095,0.057978895,0.095681414,0.131390907
4.65002975,0.029844638,0.027630573,0.046518132,0.061790676
4.66006275,-0.011134624,-0.011265263,-0.009875184,0.018665617
4.67009575,-0.044363152,-0.044723354,-0.068769656,0.093260567
4.68012875,-0.059157923,-0.063071817,-0.113318741,0.142544208
4.69016175,-0.056622062,-0.068854876,-0.136139631,0.162729994
4.70019475,-0.045126654,-0.067372195,-0.131259575,0.154287082
4.71022675,-0.024791026,-0.074881509,-0.104590952,0.131000392
4.72025975,-0.006341278,-0.089815594,-0.061115935,0.10882192
4.73029275,0.006642431,-0.101008594,-0.016244864,0.102521966
4.74032575,0.012251535,-0.096233107,0.022245171,0.099527678
4.75035875,0.015493669,-0.073858291,0.056668125,0.094373605
4.76039175,0.014454762,-0.035833087,0.076962054,0.086116828
4.77042475,0.019598659,0.006136201,0.087887675,0.090255215
4.78045775,0.025593644,0.045699015,0.081858553,0.097181569
4.79048975,0.025798442,0.083044522,0.063171677,0.107483082
4.80052275,0.020063963,0.098436341,0.040700175,0.108391789
4.81055575,0.006810743,0.09882383,0.009605375,0.099522856
4.82058875,-0.003007839,0.080008171,-0.011763775,0.080924292
4.83062175,-0.01511164,0.060419023,-0.035891749,0.071882109
4.84065475,-0.020493308,0.034993391,-0.052451711,0.066300039
4.85068775,-0.022200659,0.008818248,-0.0563615,0.061214781
4.86072075,-0.020145483,-0.018918961,-0.056031752,0.062476595
4.87075275,-0.013729664,-0.045899712,-0.048479028,0.068157929
4.88078575,-0.006480935,-0.072158374,-0.036431607,0.081093128
4.89081875,0.003574628,-0.095004305,-0.018525045,0.096859554
4.90085175,0.005386965,-0.10706412,0.003040427,0.107242666
4.91088475,0.011440064,-0.101926349,0.021291602,0.104752986
4.92091775,0.010173408,-0.089852683,0.034205809,0.096680093
4.93095075,0.010472481,-0.062748902,0.042995039,0.076783272
4.94098275,0.009159939,-0.028955352,0.043062873,0.052694667
4.95101575,0.01044172,0.009617608,0.039816745,0.042271753
4.96104875,0.005934121,0.040566124,0.029799571,0.050683712
4.97108175,0.001587576,0.070489399,0.01480411,0.072044691
4.98111475,0.000795675,0.091803171,-0.003731459,0.09188242
4.99114775,-0.005520011,0.09354461,-0.021106455,0.096054917
5.00118075,-0.014030321,0.084599242,-0.031509172,0.091360328
5.01121375,-0.013908881,0.05571726,-0.038145769,0.068941785
5.02124575,-0.015824977,0.027545456,-0.038036622,0.04955771
5.03127875,-0.014171951,-0.006604525,-0.030509198,0.034282286
5.04131175,-0.005212395,-0.03810209,-0.017874092,0.0424078
5.05134475,0.004809879,-0.064188287,-0.003848554,0.064483195
5.06137775,0.013528663,-0.081212312,0.008326657,0.08275142
5.07141075,0.011830897,-0.086167656,0.018158782,0.088851429
5.08144375,0.015353798,-0.083641261,0.025457898,0.088767698
5.09147575,0.010674625,-0.073031232,0.026804391,0.078523779
5.10150875,0.007488347,-0.053968437,0.01898516,0.057698387
5.11154175,0.000678911,-0.030345136,0.011737633,0.032543206
5.12157475,-0.003269894,-0.000635543,0.003693479,0.004973722
5.13160775,-0.008168247,0.027138829,-0.006881935,0.029165002
5.14164075,-0.006325072,0.051042564,-0.009962413,0.052388926
5.15167375,-0.00606568,0.065710992,-0.015856521,0.067868668
5.16170575,-0.005579932,0.069197193,-0.015867751,0.071212166
5.17173875,-0.007479565,0.059216999,-0.015017403,0.061547699
5.18177175,-0.008581836,0.041853592,-0.008883034,0.043638049
5.19180475,-0.002287454,0.02120797,-0.006313083,0.022245571
5.20183775,-0.000698341,-0.002578384,0.001195853,0.002926741
5.21187075,0.004180037,-0.02211347,0.007822864,0.023825941
5.22190375,0.006684928,-0.040755119,0.010080344,0.042512132
5.23193675,0.009062332,-0.051611494,0.010104579,0.053366419
5.24196875,0.007149525,-0.059889097,0.011803376,0.061458435
5.25200175,0.006446717,-0.055755336,0.008951129,0.056836083
5.26203475,0.004322648,-0.047763538,0.003783304,0.048107735
5.27206775,0.001448298,-0.037312496,-0.000264967,0.037341534
5.28210075,0.000264924,-0.019798119,-0.008533739,0.021560621
5.29213375,-0.003839007,-0.001990359,-0.006591762,0.00788358
5.30216675,-0.006495582,0.014622322,-0.009166698,0.018439991
5.31219975,-0.006814363,0.027260087,-0.011889781,0.030510896
5.32223175,-0.004264064,0.034264777,-0.009262312,0.035749792
5.33226475,-0.004216926,0.036246434,-0.006374114,0.037043431
5.34229775,-0.001650828,0.034308754,-0.000943694,0.034361408
5.35233075,0.001807021,0.021202011,0.003292329,0.02153207
5.36236375,0.003849879,0.013213674,0.007958758,0.015898571
5.37239675,0.003733498,-0.001169527,0.011750566,0.012384773
5.38242975,0.004757796,-0.012431787,0.014901159,0.019980754
5.39246175,0.006470475,-0.02226338,0.012347188,0.026267436
5.40249475,0.005552769,-0.028660821,0.008909128,0.030522917
5.41252775,0.001526868,-0.033029202,0.001111392,0.033083149
5.42256075,-3.45083E-05,-0.031985212,-0.00227038,0.032065708
5.43259375,-0.002578892,-0.028746275,-0.006525312,0.02959018
5.44262675,-0.002811189,-0.02186938,-0.010775224,0.024541353
5.45265975,-0.003362996,-0.014325444,-0.009822079,0.017691843
5.46269275,-0.004906016,-0.00531156,-0.010107255,0.012427319
5.47272475,-0.00459629,0.000313302,-0.007739438,0.009006828
5.48275775,-0.000238413,0.008731794,-0.005141139,0.010135698
5.49279075,-0.000342276,0.013985146,-0.002488896,0.014209013
5.50282375,7.9767E-05,0.012593461,0.002636319,0.012866694
5.5128565,0.001540777,0.014780981,0.008264643,0.01700458
5.5228895,0.000396083,0.010785257,0.010597534,0.015125687
5.5329225,0.002545254,0.006078653,0.011952551,0.013648876
5.5429555,0.002437861,0.002593723,0.009345544,0.010000488
5.5529875,0.00422138,-0.003897998,0.00925473,0.010893322
5.5630205,0.004151271,-0.007369612,0.00382637,0.009283606
5.5730535,-0.000275436,-0.009400006,-0.000112445,0.009404713
5.5830865,-0.000345607,-0.011330697,-0.002651692,0.011641976
5.5931195,-0.003035134,-0.008746632,-0.007062153,0.011644296
5.6031525,-0.00828791,0.000941579,-0.017863721,0.019715186
5.6131855,0.011083923,-0.034993518,-0.040423889,0.054603026
5.6232175,0.047657859,-0.076421686,-0.045514777,0.100911548
5.6332505,0.054192457,-0.032386053,-0.034828577,0.072102071
5.6432835,0.02504874,0.03971694,-0.052652858,0.070549261
5.6533165,-0.053446598,0.158532262,-0.131983638,0.213093166
5.6633495,-0.129386425,0.203866959,-0.108882301,0.26487344
5.6733825,-0.225002691,0.364162892,0.148276255,0.453019504
5.6834155,-0.13703914,0.142578736,0.341711521,0.394810316
5.6934475,0.050052192,-0.0941872,0.317058116,0.334518011
5.7034805,0.200016454,-0.187175676,0.206355542,0.342963446
5.7135135,0.259727716,-0.188756794,0.087489881,0.332779346
5.7235465,0.099368803,0.048751462,-0.068327874,0.130075219
5.7335795,-0.055552866,0.12165869,-0.197250962,0.238316806
5.7436125,-0.136698738,0.039770246,-0.221673608,0.263452853
5.7536455,-0.146895707,-0.062332153,-0.159656316,0.225729451
5.7636785,-0.103730984,-0.118513241,-0.109070465,0.191577326
5.7737105,-0.079665594,-0.022132378,-0.064137876,0.104642803
5.7837435,0.010833539,-0.009912499,-0.010632541,0.018129372
5.7937765,0.115738384,-0.13001734,0.018936271,0.175095587
5.8038095,0.152729571,-0.197459206,0.06626866,0.25827891
5.8138425,0.050244477,-0.075100005,0.113636978,0.145182233
5.8238755,-0.076747775,0.003321895,0.108918846,0.133283798
5.8339085,-0.116796926,-0.033499766,0.054824725,0.133302313
5.8439415,-0.066739872,-0.089647658,0.002918043,0.111800841
5.8539735,-0.003918565,-0.060887117,-0.024823841,0.065869714
5.8640065,0.040440634,0.034949001,-0.035090365,0.063939121
5.8740395,0.080241047,0.084352501,-0.021237133,0.118342663
5.8840725,0.089365035,0.090907335,0.015771486,0.128448406
5.8941055,0.064623468,0.081304513,0.033781379,0.109214459
5.9041385,0.006995201,0.065904826,0.013267277,0.067589937
5.9141715,-0.05314457,0.07685414,-0.002949243,0.093485839
5.9242035,-0.067740828,0.068978973,-0.008328714,0.097037549
5.9342365,-0.050658777,0.037608799,-0.031128302,0.070354137
5.9442695,-0.015588806,-0.015239668,-0.067163192,0.070612695
5.9543025,0.010956785,-0.089708574,-0.07957112,0.120412801
5.9643355,0.022147048,-0.155654952,-0.051482692,0.165437068
5.9743685,0.021804832,-0.183518812,-0.01196218,0.185196379
5.9844015,0.032273531,-0.173224106,0.026566798,0.178196427
5.9944335,0.048326533,-0.142751426,0.058600362,0.161701657
6.0044665,0.055421855,-0.077694163,0.059296288,0.112356641
6.0144995,0.04609067,-0.01363741,0.035006396,0.059462397
6.0245325,0.026548799,0.030740205,0.001615374,0.040649826
6.0345655,-0.001903348,0.055568855,-0.004514956,0.055784453
6.0445985,-0.025768816,0.08184848,0.011358966,0.086557678
6.0546315,-0.037166078,0.081792019,-0.003091079,0.089893306
6.0646645,-0.028259264,0.082999267,-0.046958968,0.099461595
6.0746965,-0.014761033,0.077392511,-0.057721868,0.097669355
6.0847295,0.013361807,0.03103563,-0.047401555,0.05821216
6.0947625,0.022697518,-0.022479527,-0.030881966,0.044431995
6.1047955,0.009758297,-0.027260363,0.009722915,0.030543196
6.1148285,0.000173581,-0.059914712,0.035854917,0.069823906
6.1248615,0.004385822,-0.095516898,0.0327015,0.101054942
6.1348945,0.009102013,-0.080199197,0.030018365,0.086115388
6.1449265,0.018693799,-0.050494861,0.030287996,0.061778247
6.1549595,0.017953441,-0.02204724,0.020274244,0.03492065
6.1649925,0.006252182,0.002149473,0.008059351,0.010424162
6.1750255,-0.003718161,-0.010935703,-0.011562821,0.016343596
6.1850585,-0.010963094,-0.021435063,-0.035709355,0.043067498
6.1950915,-0.014322672,-0.012060735,-0.041150194,0.04520994
6.2051245,-0.009271988,-0.000923396,-0.028962241,0.030424231
6.2151575,0.003965522,0.018579731,-0.007616204,0.020467983
6.2251895,0.017703032,0.054376576,0.007074628,0.057621695
6.2352225,0.025386784,0.23178944,0.066205323,0.242392199
6.2452555,0.037304167,0.337732583,0.135145932,0.365676526
6.2552885,0.049418885,0.286261141,0.157674149,0.330528069
6.2653215,0.12929672,0.443874925,0.048814189,0.464892908
6.2753545,0.290378571,1.101990223,-0.096341141,1.143671186
6.2853875,0.207039356,1.092835307,0.149472564,1.122272851
6.2954195,-0.188186795,0.314054012,0.356141299,0.510764933
6.3054525,-0.717020452,-0.783302069,0.498325527,1.173034011
6.3154855,-0.443375379,-0.468322784,0.52213788,0.829780647
6.3255185,0.053920221,-0.20272848,0.211193293,0.29767236
6.3355515,0.20384714,-0.368572831,-0.208867893,0.470133369
6.3455845,0.248548776,-0.186314657,-0.48245579,0.573805921
6.3556175,0.361086756,0.171558797,-0.428513199,0.586037224
6.3656505,0.261848956,0.346709073,-0.101329915,0.446138777
6.3756825,0.104937613,0.513798177,0.134457856,0.541368068
6.3857155,0.058102582,0.664811313,0.187468454,0.693177043
6.3957485,-0.189641714,0.708400607,0.132113844,0.745150634
6.4057815,-0.338212401,0.616269112,0.124915816,0.71398824
6.4158145,-0.298139542,0.210377544,0.174913198,0.404648643
6.4258475,-0.017391708,-0.407619655,0.470281631,0.622592216
6.4358805,0.422549993,-1.11464262,1.07990694,1.608469977
6.4459125,0.809740007,-1.677870989,1.813939929,2.600251526
6.4559455,1.009024382,-1.868875384,2.514135838,3.291155483
6.4659785,1.029538512,-1.590402484,3.122571707,3.652366859
6.4760115,0.818926334,-0.965919256,3.567284346,3.785387424
6.4860445,0.431697011,-0.142439157,3.887049675,3.913541414
6.4960775,-0.086400464,0.643589139,4.12193203,4.172768347
6.5061105,-0.72346437,1.202220917,4.26579237,4.490625833
6.516142417,-1.437050819,1.581950903,4.263530254,4.76921104
6.526175417,-2.192486286,1.7378304,4.110648155,4.972371554
6.536208417,-2.822797537,1.712519169,4.033229828,5.212278838
6.546241417,-3.185399771,1.697338939,4.217331886,5.551001658
6.556274417,-3.312787533,1.645486951,4.659702301,5.949370898
6.566307417,-3.466882706,1.341278553,5.205767632,6.396742959
6.576340417,-3.842646122,1.099173307,5.65666008,6.926176033
6.586373417,-4.458250999,0.928025246,5.975661755,7.513039747
6.596405417,-4.934243202,0.864625752,6.472942829,8.184944871
6.606438417,-5.126315117,0.985659599,6.794371605,8.568203839
6.616471417,-5.093742371,1.076520562,6.903207302,8.646350613
6.626504417,-4.814534187,1.064298749,6.769701958,8.37504244
6.636537417,-4.296854019,1.016940475,6.469921112,7.833071019
6.646570417,-3.685279846,0.979949951,6.121362209,7.21198064
6.656603417,-3.059684277,1.084741116,5.856304169,6.695866611
6.666636417,-2.520364046,1.343184948,5.703714371,6.37877248
6.676668417,-2.117231607,1.673944235,5.647602081,6.259406382
6.686701417,-1.818842888,2.019757271,5.720157146,6.333072451
6.696734417,-1.703042269,2.291005135,5.935677052,6.586449693
6.706767417,-1.754085064,2.415048599,6.075248718,6.768893642
6.716800417,-1.846669436,2.309637785,6.015619755,6.703155655
6.726833417,-1.898569942,2.071102142,5.878080368,6.515048789
6.736866417,-1.891299248,2.01578021,5.694943905,6.330305584
6.746898417,-1.910231829,2.1007967,5.493253708,6.183701861
6.756931417,-1.947570682,2.360185146,5.292603016,6.113522076
6.766964417,-1.995769382,2.621025085,5.077381611,6.052493036
6.776997417,-2.050360918,2.723395824,4.873514652,5.947437244
6.787030417,-2.053051472,2.612438202,4.698754311,5.754836729
6.797063417,-1.98631072,2.283504009,4.612016201,5.51638598
6.807096417,-1.826355815,1.794511557,4.570746422,5.239042865
6.817128417,-1.610056281,1.158990026,4.64090395,5.047130727
6.827161417,-1.389440894,0.654654503,4.712881088,4.956850479
6.837194417,-1.19406426,0.299337983,4.629992008,4.790847386
6.847227417,-1.072621226,0.094081484,4.357156754,4.488227111
6.857260417,-1.056120515,0.045088373,3.897659779,4.038461991
6.867293417,-1.10340786,0.058413949,3.286807299,3.467567348
6.877326417,-1.213270187,0.003447104,2.65003252,2.914568371
6.887359417,-1.354219317,-0.016076982,2.081054926,2.482933353
6.897391417,-1.463750839,0.089709103,1.617114305,2.183042125
6.907424417,-1.499533057,0.294881165,1.231306195,1.962567002
6.917457417,-1.469279051,0.493770033,0.911976635,1.798413512
6.927490417,-1.3535074,0.64562124,0.666641891,1.641103433
6.937523417,-1.10618639,0.677084088,0.480796367,1.383205096
6.947556417,-0.737526,0.493309975,0.335365951,0.948561886
6.957589417,-0.317244887,0.101467125,0.192030907,0.384468159
6.967622417,0.118418314,-0.34716177,-0.004561112,0.366831017
6.977654417,0.527448714,-0.843073785,-0.269076139,1.030231781
6.987687417,0.730436623,-1.124671459,0.663969338,1.49642201
6.997720417,0.566249549,-0.578732014,4.30559206,4.381060635
7.007753417,1.673905134,-1.992583275,5.297267437,5.901981769
7.017786417,2.293412685,-2.422880173,4.829778194,5.869995527
7.027819417,2.060545206,-1.612655044,4.228125095,4.972277613
7.037852417,1.12389195,-0.117648587,3.855773449,4.017955101
7.047885417,-0.008531827,0.202880785,3.717208385,3.72275054
7.057917417,-0.416562706,-0.096851602,3.760581732,3.784822279
7.067950417,-0.353779107,-0.170147836,3.920445442,3.940051067
7.077983417,-0.540028632,-0.864161491,3.871650696,4.0035091
7.088016417,-0.721104324,-1.740529776,3.674030304,4.128914388
7.098049417,-0.931715906,-2.343566895,3.431747913,4.258790211
7.108082417,-0.93837595,-1.756978273,2.739100218,3.386767202
7.118115417,-0.87026,-1.482786655,1.851892233,2.526957375
7.128147417,-0.60658747,-1.225362897,1.565319061,2.078385515
7.138180417,-0.426385731,-0.594863951,1.676209569,1.829028822
7.148213417,-0.440883577,0.028163981,1.81612885,1.869089494
7.158246417,-0.474710524,0.400720775,1.796187401,1.900583174
7.168279417,-0.419151872,0.568023324,1.659747362,1.803635244
7.178312417,-0.23209703,0.664371431,1.481797338,1.64042122
7.188345417,0.112225272,0.801014662,1.230839014,1.472814883
7.198378417,0.570772052,0.927948356,0.886472344,1.404529139
7.208410417,1.073314905,1.0190804,0.475730717,1.554621968
7.218443417,1.536796212,0.994045019,0.090399534,1.832495614
7.228476417,1.895317912,0.980289519,-0.197341084,2.142928144
7.238509417,2.156992435,1.061187029,-0.369958133,2.432201327
7.248542417,2.388626099,1.091525793,-0.48662287,2.670910896
7.258575417,2.581014395,0.982355058,-0.679711342,2.844057713
7.268608417,2.691186666,0.870233655,-0.875155866,2.960690811
7.278641417,2.768797636,0.729258478,-0.994563997,3.031042035
7.288673417,2.865503788,0.529162467,-1.048329115,3.096791696
7.298706417,2.921344995,0.305738986,-1.058646202,3.122253143
7.308739417,2.891866446,0.109485343,-1.029338241,3.071549412
7.318772417,2.737371683,-0.036953628,-0.996483386,2.91333974
7.328805417,2.490462303,-0.148783967,-0.964824855,2.674962832
7.338838417,2.189714909,-0.213704914,-0.948683143,2.395938412
7.348871417,1.851778269,-0.257050931,-0.929918349,2.08803881
7.358904417,1.487538815,-0.246545568,-0.908682525,1.760471634
7.368936417,1.114964366,-0.161013111,-0.903636217,1.444170756
7.378969417,0.801115096,0.004914602,-0.878954053,1.189272793
7.389002417,0.610300958,0.193799824,-0.78176409,1.01053487
7.399035417,0.549067974,0.320336193,-0.625325739,0.891696808
7.409068417,0.537760675,0.413442641,-0.447081953,0.812406077
7.419101417,0.518626392,0.521509469,-0.287163675,0.78956218
7.429134417,0.613865316,0.339889824,-0.235167429,0.74004016
7.439167417,0.968056977,-0.144885644,-0.334437549,1.034395782
7.449199417,1.060046196,-0.256636262,-0.498457193,1.199174584
7.459232417,1.097627878,-0.289186746,-0.524109304,1.250242575
7.469265417,1.017346144,-0.180470198,-0.431505412,1.119714066
7.479298417,0.842326701,-0.049038153,-0.357874066,0.916511243
7.489331417,0.669292212,0.048188962,-0.316693157,0.742003232
7.499364417,0.550226331,0.128920019,-0.300202608,0.639914832
7.509397417,0.474919677,0.247161821,-0.311140627,0.619230292
7.519429625,0.453434885,0.3554281,-0.305174083,0.651968979
7.529462625,0.436916351,0.397388697,-0.29030174,0.658094807
7.539495625,0.383769512,0.392519116,-0.258668453,0.606844019
7.549528625,0.302461565,0.390025318,-0.195817292,0.530986966
7.559561625,0.243694395,0.36242193,-0.129559979,0.455546267
7.569594625,0.230115876,0.291866779,-0.11045859,0.387737841
7.579627625,0.234557226,0.222445875,-0.158621579,0.360083414
7.589660625,0.269410074,0.23292765,-0.252778888,0.436731318
7.599693625,0.319372326,0.280509293,-0.363468915,0.559279714
7.609725625,0.378630668,0.354891777,-0.434918135,0.677099063
7.619758625,0.42085135,0.380942017,-0.496174037,0.753937235
7.629791625,0.428775847,0.348758787,-0.506578207,0.749735219
7.639824625,0.364883423,0.297058851,-0.493514597,0.681865479
7.649857625,0.260539025,0.256641477,-0.47003606,0.595549602
7.659890625,0.177780241,0.22659488,-0.443138689,0.528510124
7.669923625,0.11809998,0.238166541,-0.42832163,0.504113405
7.679956625,0.087115169,0.332485616,-0.422659218,0.544772019
7.689988625,0.133429736,0.435596436,-0.468556106,0.653523201
7.700021625,0.229728043,0.535696387,-0.552327752,0.803001581
7.710054625,0.3521384,0.631931543,-0.633312345,0.961469424
7.720087625,0.488298625,0.721371949,-0.683899343,1.107488757
7.730120625,0.621728003,0.763709486,-0.694951892,1.20530329
7.740153625,0.716414511,0.765610695,-0.650814235,1.234086163
7.750186625,0.756716371,0.749467254,-0.559065998,1.20286143
7.760219625,0.733696818,0.687649965,-0.463301152,1.107168214
7.770251625,0.618242025,0.577167928,-0.378132313,0.926461044
7.780284625,0.434632242,0.438206047,-0.299738705,0.686129009
7.790317625,0.236593395,0.298935592,-0.22540912,0.44288621
7.800350625,0.107283615,0.198643342,-0.142621562,0.267039063
7.810383625,0.077761181,0.178517267,-0.037857883,0.1983644
7.820416625,0.147654235,0.23354803,0.05748808,0.282225681
7.830449625,0.286975741,0.303471982,0.093539856,0.42801872
7.840482625,0.434889585,0.357582629,0.084163398,0.569278284
7.850514625,0.533612907,0.342750579,0.065442353,0.637576188
7.860547625,0.524123549,0.297801226,0.041654468,0.604256701
7.870580625,0.432756752,0.243150055,0.013286822,0.496565097
7.880613625,0.328014612,0.186481446,-0.005445854,0.377357354
7.890646625,0.25576809,0.122568145,0.004203895,0.283651087
7.900679625,0.234191149,0.066727251,-0.029198002,0.245256078
7.910712625,0.211586192,0.054445736,0.005319136,0.218543698
7.920745625,0.175232977,0.032675993,0.038707718,0.182407796
7.930777625,0.123118237,-0.028973306,0.060266301,0.140105602
7.940810625,0.057081964,-0.092255078,0.075947791,0.132428913
7.950843625,-0.01041341,-0.124093667,0.074422851,0.145073905
7.960876625,-0.086650655,-0.113039151,0.062884167,0.155693943
7.970909625,-0.158036381,-0.078661956,0.035934422,0.18015128
7.980942625,-0.206996992,-0.049050808,-0.00112746,0.212732244
7.990975625,-0.239268631,-0.015130514,-0.031228971,0.241771915
8.001008625,-0.285310149,0.011901902,-0.050755799,0.290033942
8.011040625,-0.35348922,-0.011980476,-0.004262764,0.35371787
8.021073625,-0.453120202,-0.076222047,0.055181388,0.462787968
8.031106625,-0.560548365,-0.126148611,0.074395567,0.579363998
8.041139625,-0.673181176,-0.134274974,0.06277886,0.689306789
8.051172625,-0.799940109,-0.117951833,0.026001234,0.809007341
8.061205625,-0.907146156,-0.095189534,-0.03403867,0.912761648
8.071238625,-0.95574683,-0.06389033,-0.084453315,0.961595725
8.081271625,-0.935692966,0.001455387,-0.11429137,0.942648377
8.091303625,-0.832784832,0.091582984,-0.130747497,0.847946299
8.101336625,-0.672925889,0.166871086,-0.128923759,0.705192561
8.111369625,-0.516889572,0.227130443,-0.115958706,0.57637617
8.121402625,-0.424881667,0.259822875,-0.105874382,0.509157875
8.131435625,-0.406840414,0.262093693,-0.092994623,0.492808509
8.141468625,-0.419775128,0.250724673,-0.078830071,0.495265787
8.151501625,-0.422767848,0.229618937,-0.084602922,0.488482511
8.161534625,-0.419150472,0.212756604,-0.104818441,0.481600868
8.171566625,-0.416073442,0.233418807,-0.11911501,0.491721297
8.181599625,-0.399847329,0.259658694,-0.132925898,0.494944258
8.191632625,-0.357859969,0.284035027,-0.140187889,0.477904068
8.201665625,-0.297222704,0.314017177,-0.141756237,0.455019729
8.211698625,-0.234604895,0.329298437,-0.123130776,0.422656013
8.221731625,-0.183141708,0.335640758,-0.093921222,0.393721729
8.231764625,-0.148596898,0.341262013,-0.069571055,0.378656746
8.241797625,-0.124268651,0.33489573,-0.056204651,0.361603112
8.251830625,-0.128154874,0.312656015,-0.055384316,0.342410394
8.261862625,-0.146315768,0.27697739,-0.062359132,0.319395429
8.271895625,-0.149537727,0.240966797,-0.070435904,0.292211816
8.281928625,-0.119128697,0.212113574,-0.078980394,0.255776694
8.291961625,-0.068479799,0.218719557,-0.075092055,0.241177412
8.301994625,-0.004489893,0.245123208,-0.073596157,0.255972538
8.312027625,0.044690378,0.271248013,-0.073911354,0.28466753
8.322060625,0.059777718,0.28847602,-0.083823904,0.306297628
8.332093625,0.055540841,0.292471051,-0.095152333,0.312534906
8.342125625,0.04930931,0.260821253,-0.108509153,0.286763614
8.352158625,0.038683791,0.229847506,-0.122792177,0.263446826
8.362191625,0.032012038,0.238285467,-0.135892794,0.276173108
8.372224625,0.055720139,0.263102442,-0.137021437,0.301831912
8.382257625,0.091336995,0.31881845,-0.130778193,0.356497667
8.392290625,0.124924392,0.377673566,-0.127315313,0.417675251
8.402323625,0.143027768,0.415863276,-0.128658608,0.45820546
8.412356625,0.121471122,0.412429422,-0.130050391,0.449184111
8.422388625,0.055401288,0.368185788,-0.119006798,0.390887062
8.432421625,-0.31139338,0.298964828,-0.121839955,0.448542953
8.442454625,-0.520020604,0.032410879,-0.132624686,0.537644121
8.452487625,-0.550278068,-0.183303297,-0.120740891,0.592439375
8.462520625,-0.432844907,-0.185887352,-0.07352411,0.476775226
8.472553625,-0.221348569,-0.065476336,-0.032627501,0.233124201
8.482586625,-0.030993545,0.042107917,-0.026467608,0.05860214
8.492619625,0.074093722,0.109910667,-0.036189213,0.137404125
8.502652625,0.038068879,0.142505631,-0.053836383,0.157020542
8.512684625,-0.116972402,0.122255415,-0.094486423,0.193795287
8.522717625,-0.304376394,0.027754743,-0.092760965,0.319405559
