Time (s),Gyroscope x (rad/s),Gyroscope y (rad/s),Gyroscope z (rad/s),Absolute (rad/s)
0.013571125,0.19932887,0.138584137,-0.185898542,0.305770877
0.023603125,0.190250397,0.124791272,-0.204626024,0.306006347
0.033635125,0.156840503,0.059857018,-0.177450329,0.244275307
0.043667125,0.111090079,-0.018825904,-0.112928122,0.15952486
0.053700125,0.068105593,-0.119134396,0.000336646,0.137227875
0.063732125,0.032909229,-0.232919693,0.158952385,0.283902204
0.073764125,-0.006443238,-0.321687132,0.32772994,0.459272294
0.083796125,-0.063705996,-0.436699986,0.497965336,0.665383204
0.093828125,-0.133780688,-0.636120677,0.662308156,0.928008018
0.103861125,-0.220299557,-0.870433033,0.807008088,1.20724795
0.113893125,-0.342031866,-1.10265553,0.890902996,1.458267178
0.123925125,-0.528515577,-1.363479495,0.883441806,1.708471385
0.133957125,-0.766013324,-1.584523678,0.842953265,1.951425608
0.143990125,-1.026080608,-1.722073674,0.778824508,2.150568941
0.154022125,-1.262257218,-1.708438277,0.707537293,2.238897866
0.164054125,-1.438202143,-1.549459219,0.639475763,2.208659894
0.174086125,-1.544120789,-1.275278211,0.575996161,2.083846228
0.184119125,-1.560337782,-1.013034463,0.535905719,1.935997871
0.194151125,-1.483214736,-0.777276814,0.523534298,1.754472388
0.204183125,-1.348831654,-0.536543787,0.514025331,1.539950683
0.214215125,-1.206127524,-0.384833097,0.396391094,1.326637108
0.224248125,-1.051540971,-0.290070683,0.233463749,1.11551994
0.234280125,-0.892048478,-0.230309904,0.018345581,0.921482338
0.244312125,-0.725394487,-0.290626764,-0.232498273,0.815301494
0.254344125,-0.570341468,-0.474212825,-0.488890618,0.888358728
0.264377125,-0.432308763,-0.7018224,-0.734537005,1.104078874
0.274409125,-0.301449001,-0.936863124,-0.926526964,1.35167904
0.284441125,-0.18766731,-1.133635879,-1.047058821,1.554567946
0.294473125,-0.077388205,-1.286373973,-1.099608541,1.694073751
0.304505125,0.040596742,-1.292735934,-1.080163836,1.685101838
0.314538125,0.169086277,-1.090466738,-1.013089776,1.498018281
0.324570125,0.312712461,-0.779560924,-0.942219734,1.262252884
0.334601917,0.440742344,-0.455206811,-0.878738761,1.083350758
0.344633917,0.504541993,-0.162992641,-0.840172231,0.993488099
0.354666917,0.458456039,0.038198531,-0.810011387,0.931536105
0.364698917,0.383794904,0.226454169,-0.751112342,0.873355465
0.374730917,0.27516374,0.208621636,-0.672715545,0.756164185
0.384762917,0.175533265,0.10678149,-0.546827257,0.584152602
0.394795917,0.088157341,0.093661159,-0.422540188,0.441683529
0.404827917,-0.013098177,0.115109995,-0.318130434,0.33856882
0.414859917,-0.130803764,0.166029632,-0.176752508,0.275530239
0.424891917,-0.234711006,0.210231811,-0.023408698,0.315966197
0.434924917,-0.309980989,0.122800231,0.089840628,0.345310655
0.444956917,-0.359193802,-0.097053692,0.151386812,0.401693382
0.454988917,-0.370949775,-0.370966226,0.156085953,0.547341302
0.465020917,-0.339468122,-0.652086973,0.159080073,0.752171853
0.475052917,-0.267268211,-0.861487865,0.159240395,0.915942761
0.485085917,-0.181414187,-0.887670398,0.152955085,0.918838996
0.495117917,-0.091044351,-0.704045177,0.151134819,0.725817069
0.505149917,-0.021643151,-0.420911908,0.163767785,0.452167168
0.515181917,0.008495045,-0.161258742,0.176896378,0.239518009
0.525214917,0.014834394,0.02443785,0.174651384,0.176975631
0.535246917,-0.002279345,0.132287085,0.164381698,0.211012822
0.545278917,-0.040316749,0.227361962,0.135223493,0.267589789
0.555310917,-0.093100064,0.33544904,0.086433314,0.358698199
0.565343917,-0.17633526,0.407212406,0.019353883,0.444174111
0.575375917,-0.310640067,0.402596086,-0.075890876,0.514140336
0.585407917,-0.49254173,0.411080897,-0.188723624,0.668731236
0.595439917,-0.713076711,0.388008326,-0.290263295,0.86213783
0.605472917,-0.95627135,0.337892652,-0.353933007,1.074195007
0.615504917,-1.194823146,0.301528782,-0.382249087,1.290207859
0.625536917,-1.419888735,0.274579227,-0.369157046,1.49256648
0.635568917,-1.601513147,0.189374343,-0.307731211,1.641769016
0.645600917,-1.729403019,0.08703275,-0.199456096,1.743041088
0.655633917,-1.796521068,-0.015637174,-0.071561247,1.79801376
0.665665917,-1.81929183,-0.14582549,0.046707544,1.825724358
0.675697917,-1.818778634,-0.337847143,0.139414042,1.855136838
0.685729917,-1.784699321,-0.515172362,0.197781995,1.868066366
0.695762917,-1.715097904,-0.684212804,0.216285378,1.859163077
0.705794917,-1.601823926,-0.818610728,0.210896075,1.811198655
0.715826917,-1.453795075,-0.884279788,0.199068442,1.713213095
0.725858917,-1.293686152,-0.922338843,0.174057364,1.598320608
0.735891917,-1.138420343,-0.90591222,0.150727004,1.462667583
0.745923917,-0.990855932,-0.797228336,0.187353134,1.285484226
0.755955917,-0.871902406,-0.623971879,0.267701238,1.105087628
0.765987917,-0.77662909,-0.441848069,0.344834238,0.957754202
0.776020917,-0.733186007,-0.29031527,0.399707586,0.884087569
0.786052917,-0.75394851,-0.170226708,0.408003718,0.874003731
0.796084917,-0.853145659,-0.096758612,0.322341532,0.917128021
0.806116917,-0.973642826,-0.125196278,0.250650883,1.013153654
0.816149917,-1.070317984,-0.182195127,0.229470238,1.109699167
0.826181917,-1.160911798,-0.177288175,0.210368842,1.193064269
0.836213917,-1.24072504,-0.109378099,0.155893624,1.255254961
0.846245917,-1.315269709,0.038412351,0.126024261,1.321851743
0.856277917,-1.376410842,0.258434474,0.15810737,1.409359118
0.866310917,-1.434396148,0.438579679,0.220808968,1.516113796
0.876342917,-1.486158967,0.509255707,0.258442879,1.592106332
0.886374917,-1.541891098,0.54309386,0.234296203,1.651445975
0.896406917,-1.55006969,0.512446702,0.148336023,1.639305109
0.906439917,-1.475165606,0.461492211,0.04280135,1.546260192
0.916471917,-1.30920279,0.374051064,-0.028311178,1.361883867
0.926503917,-1.081680655,0.247162566,-0.070220739,1.111779351
0.936535917,-0.840765238,0.083666578,-0.08604338,0.849287787
0.946568917,-0.593716919,-0.081164472,-0.108725548,0.609022739
0.956600917,-0.359334767,-0.20415698,-0.168891683,0.446459346
0.966632917,-0.144748136,-0.291342676,-0.250387132,0.410519541
0.976664917,0.026631605,-0.441629648,-0.295061916,0.531796505
0.986697917,0.156821638,-0.663642645,-0.238549292,0.722440552
0.996729917,0.263860196,-0.897222877,-0.075928695,0.938294335
1.006761917,0.33782655,-1.142416716,0.098806232,1.195410139
1.016793917,0.385223895,-1.294340253,0.249033809,1.373219566
1.026825917,0.411895186,-1.288766265,0.33377102,1.393549146
1.036858917,0.387670279,-1.134221673,0.348204553,1.248196082
1.046890917,0.312121451,-0.887815297,0.340735167,1.000867751
1.056922917,0.225069627,-0.620697021,0.320267975,0.733820622
1.066954917,0.158041134,-0.478599787,0.315845132,0.594804929
1.076987917,0.152194962,-0.437856078,0.309483379,0.557369907
1.087019917,0.21287024,-0.526667953,0.26662606,0.627520778
1.097051917,0.367240906,-0.644868612,0.178512707,0.763274653
1.107083917,0.604921639,-0.681555986,0.015313069,0.911418259
1.117116917,0.917395115,-0.600120783,-0.187656552,1.112193208
1.127148917,1.349744201,-0.379171431,-0.288286626,1.431324408
1.137180917,1.918106675,-0.035484366,-0.234358683,1.932696652
1.147212917,2.620635033,0.356126994,-0.116578385,2.647290111
1.157245917,3.436482906,0.692710876,0.000594576,3.505604581
1.167277917,4.368950367,0.924531639,0.132321581,4.467661028
1.177309917,5.42468071,0.991953313,0.301066935,5.522841069
1.187341917,6.691373348,0.792342961,0.549914658,6.760524446
1.197374917,8.261471748,0.095998526,0.958748996,8.317471419
1.207406917,10.24768257,-0.958473027,1.274149179,10.37097511
1.217438917,12.75150299,-2.224005938,1.046689987,12.98624622
1.227470917,15.82898903,-3.370250702,0.460899472,16.19036478
1.237503917,19.33839035,-4.541671753,-0.681688249,19.87623763
1.247535917,22.71693039,-6.009142876,-2.369719028,23.61745737
1.257567917,25.48446846,-7.671072483,-3.864178181,26.89303551
1.267599917,27.19350243,-8.842964172,-5.331336498,29.08793115
1.277631917,27.15272522,-9.790020943,-6.795973778,29.65299743
1.287664917,26.32549286,-11.66358948,-8.367268562,29.98469738
1.297696917,25.11896896,-13.88971615,-10.18680096,30.45747413
1.307728917,23.37861443,-16.41922951,-12.24526787,31.08210571
1.317760917,20.94601059,-19.16209412,-14.47701073,31.86698998
1.327794292,17.67196846,-21.96399498,-16.74906731,32.79095608
1.337826292,13.45336628,-24.55185699,-18.84739494,33.74923765
1.347858292,8.333364487,-26.56765747,-20.49637032,34.57436309
1.357890292,2.551278353,-27.64081192,-21.40963936,35.05561527
1.367923292,-3.454356909,-27.53544998,-21.41196823,35.05147602
1.377955292,-9.179503441,-26.24847031,-20.49926186,34.54656587
1.387987292,-14.19674587,-24.02829361,-18.85071945,33.67871896
1.398019292,-18.27407074,-21.23557663,-16.76379967,32.64837447
1.408052292,-21.39584732,-18.25296783,-14.51132584,31.64698556
1.418084292,-23.66447449,-15.35183811,-12.31333065,30.77831051
1.428116292,-25.25412178,-12.69194508,-10.30657673,30.08457513
1.438148292,-26.33304787,-10.35216808,-8.548306465,29.55791497
1.448181292,-27.04831123,-8.344236374,-7.055298805,29.1721556
1.458213292,-27.52238655,-6.656702518,-5.810535908,28.90598169
1.468245292,-27.82375908,-5.246432304,-4.792049408,28.71672611
1.478277292,-28.0062561,-4.0661726,-3.966321468,28.57649115
1.488310292,-28.11176682,-3.078172684,-3.308438063,28.47265957
1.498342292,-28.17176247,-2.241827965,-2.792279005,28.3984298
1.508374292,-28.19440079,-1.526383519,-2.40380764,28.33782584
1.518406292,-28.20048332,-0.89253521,-2.122190475,28.2943028
1.528439292,-28.18447685,-0.320538521,-1.936162233,28.2527203
1.538471292,-28.16119003,0.209976211,-1.841826081,28.22213736
1.548503292,-28.13112259,0.727031887,-1.831040263,28.20002379
1.558535292,-28.08776093,1.249207377,-1.905116558,28.17999826
1.568567292,-28.03827667,1.796375871,-2.06694603,28.1716913
1.578600292,-27.97027969,2.395440102,-2.317212582,28.16814075
1.588632292,-27.87240219,3.066752911,-2.673445225,28.1677668
1.598664292,-27.74666595,3.83866477,-3.143674612,28.18679671
1.608696292,-27.56988144,4.745733738,-3.746271372,28.22507574
1.618729292,-27.3194294,5.819339275,-4.507277966,28.29366514
1.628761292,-26.96904564,7.096938133,-5.443861961,28.41358102
1.638793292,-26.46686554,8.614431381,-6.589084148,28.60278709
1.648825292,-25.7392807,10.40455055,-7.961765289,28.88174077
1.658858292,-24.70212364,12.4790802,-9.583605766,29.28767411
1.668890292,-23.22046471,14.83254051,-11.43883324,29.83355736
1.678922292,-21.16018677,17.41320038,-13.50109005,30.5491814
1.688954292,-18.36479187,20.08310127,-15.65500736,31.39547408
1.698987292,-14.73660183,22.64034081,-17.74385262,32.32022232
1.709019292,-10.2440033,24.78115654,-19.52199173,33.16856168
1.719051292,-5.038983822,26.18124771,-20.73580742,33.77606844
1.729083292,0.562738895,26.58379936,-21.16774368,33.98659201
1.739116292,6.124381065,25.90514183,-20.74189568,33.74626873
1.749148292,11.2118454,24.24441147,-19.54422951,33.09794362
1.759180292,15.51830769,21.87672615,-17.79061508,32.18563353
1.769212292,18.95148277,19.14222145,-15.75271797,31.20467056
1.779245292,21.54855728,16.33440399,-13.65649128,30.29278509
1.789277292,23.43332863,13.66032505,-11.66718388,29.52708165
1.799309292,24.74737549,11.23412228,-9.882030487,28.91872444
1.809341292,25.63545418,9.105620384,-8.34026432,28.45432906
1.819374292,26.21915054,7.272141457,-7.047829628,28.10693507
1.829406292,26.58000374,5.706317902,-5.99175024,27.8380986
1.839438292,26.78425407,4.368561268,-5.139615536,27.62057642
1.849470292,26.89998245,3.209038973,-4.472743034,27.4574656
1.859503292,26.95444489,2.190232992,-3.968888998,27.33297092
1.869535292,26.97465706,1.272200465,-3.611617565,27.24508027
1.879567292,26.96496773,0.408396393,-3.394003153,27.18079339
1.889599292,26.93088722,-0.441218019,-3.310856104,27.13722772
1.899632292,26.87463379,-1.27945745,-3.355674982,27.11352997
1.909664292,26.80444908,-2.144716978,-3.527980089,27.12056314
1.919696292,26.69492912,-3.05440712,-3.841852427,27.14237414
1.929728292,26.5226059,-4.020408154,-4.301528454,27.16828026
1.939760292,26.27855301,-5.078695297,-4.914117336,27.21220394
1.949793292,25.93310356,-6.268307686,-5.684853077,27.27883971
1.959825292,25.45729637,-7.62611866,-6.631772995,27.38999886
1.969857292,24.79608917,-9.221670151,-7.773106575,27.57365454
1.979889292,23.8861618,-11.10358143,-9.129854202,27.87817218
1.989922292,22.63757133,-13.25728512,-10.69674397,28.33082378
1.999954292,20.92782402,-15.64865589,-12.46370983,28.95165474
2.009986292,18.62797737,-18.17163849,-14.35856533,29.72168206
2.020018292,15.616292,-20.63520622,-16.26284027,30.56403582
2.030051292,11.86992359,-22.80615997,-17.99492836,31.38205643
2.040083292,7.43019104,-24.38196945,-19.34199142,31.99688743
2.050115292,2.493251324,-25.14282608,-20.10482407,32.28903771
2.060147292,-2.628653049,-25.03579903,-20.15356255,32.24697091
2.070180292,-7.575282574,-24.11536217,-19.48907089,31.91801189
2.080212292,-12.02496719,-22.56432343,-18.21170044,31.39131346
2.090244292,-15.73866367,-20.55745697,-16.50768471,30.70534523
2.100276292,-18.66392326,-18.27789879,-14.58511925,29.91904609
2.110309292,-20.85795403,-15.91061974,-12.6212492,29.11181887
2.120341292,-22.42785072,-13.59899139,-10.75501442,28.34804032
2.130373292,-23.5195446,-11.45758152,-9.064492226,27.68772601
2.140405292,-24.30036354,-9.559298515,-7.573558331,27.1890905
2.150438292,-24.86945915,-7.90273428,-6.293062687,26.84298504
2.160470292,-24.26213074,-7.655259132,-6.356087685,26.22315448
2.170502292,-26.47047234,-9.155540466,-0.998975694,28.0269117
2.180534292,-35.44606781,-12.6900816,5.896059036,38.10807534
2.190567292,-29.92653847,18.94819069,-0.216005445,35.42143833
2.200599292,3.602278233,-7.412490845,-1.419697046,8.362832576
2.210631292,13.12647152,-3.284132481,1.094897509,13.57529304
2.220663292,12.99873829,0.575942993,1.024397492,13.05175458
2.230696292,12.55322456,0.981726229,-0.910871267,12.62445721
2.240728292,12.30992222,1.12970686,-2.273037672,12.56889505
2.250760292,12.08515549,2.074623108,-2.370451689,12.48895854
2.260792292,11.55147266,2.640615225,-2.005603075,12.01797875
2.270825292,11.02476025,2.489836693,-1.700868726,11.42967977
2.280857292,10.54671669,2.102442026,-1.385139585,10.84306724
2.290889292,10.06544781,1.655359864,-1.128652811,10.26290958
2.300921292,9.338303566,1.385965705,-0.741428435,9.469663698
2.310954292,8.366388321,1.617956281,-0.20751515,8.52392507
2.320986292,7.58066082,2.254104376,0.339042217,7.915955699
2.331018042,7.314705849,2.651029348,0.729908466,7.814451013
2.341050042,7.256511211,2.756583929,0.892965794,7.813648177
2.351082042,7.221332073,2.819958448,1.013357043,7.818356289
2.361115042,7.181179047,2.892600775,1.133616567,7.824420634
2.371147042,7.142792702,2.972901821,1.259883165,7.838682186
2.381179042,7.100083351,3.062754869,1.388338804,7.856152724
2.391211042,7.052211761,3.159064054,1.518329978,7.875195385
2.401244042,6.997258186,3.268470287,1.651573062,7.897608101
2.411276042,6.939316273,3.383481741,1.790569305,7.925162299
2.421308042,6.87284708,3.510799646,1.932139516,7.955809466
2.431340042,6.798398495,3.644752502,2.074676037,7.987911088
2.441373042,6.71227932,3.786908627,2.222178936,8.02081354
2.451405042,6.622347355,3.939106703,2.371640682,8.062054678
2.461437042,6.521284103,4.094528675,2.524560928,8.103438734
2.471469042,6.408167839,4.261309624,2.680868626,8.149259558
2.481502042,6.283325195,4.432991028,2.843060732,8.19844981
2.491534042,6.14849329,4.61000967,3.00661993,8.252025345
2.501566042,6.000559807,4.792926311,3.169725895,8.308190108
2.511598042,5.840050697,4.971112728,3.337417603,8.364000846
2.521631042,5.667098522,5.154497147,3.505034447,8.424376117
2.531663042,5.47612381,5.333565712,3.67632246,8.482346492
2.541695042,5.272146225,5.513617039,3.842256308,8.541570827
2.551727042,5.050214291,5.687114716,4.008934975,8.597644898
2.561760042,4.808942318,5.850943089,4.172099113,8.6467261
2.571792042,4.555922508,6.008720398,4.32976675,8.695287852
2.581824042,4.207979202,6.010259628,4.451526165,8.58174778
2.591856042,1.756761193,0.523461401,3.19812417,3.686220278
2.601889042,-1.401961684,-5.340425491,-0.773647845,5.575318106
2.611921042,-6.450834751,-14.56279182,-5.818180084,16.95698659
2.621953042,-12.04580688,-20.80605698,-8.784749985,25.59619704
2.631985042,-14.33647346,-18.50636864,-7.977921009,24.73191006
2.642018042,-9.277973175,-11.74120617,-4.656423092,15.67223611
2.652050042,-0.272385091,-2.750571966,-2.560442924,3.767719171
2.662082042,3.01129365,0.247978643,-2.441119432,3.884385014
2.672114042,3.092760801,0.237253278,-2.141738653,3.769416792
2.682146042,2.673341036,0.36832127,-1.55803597,3.116069469
2.692179042,2.500482559,0.608504653,-1.119562626,2.806441059
2.702211042,2.5004673,0.882941246,-0.78339231,2.765072418
2.712243042,2.518915892,1.097983003,-0.463687897,2.786666541
2.722275042,2.540028334,1.21698606,-0.212818906,2.82455145
2.732308042,2.530749321,1.426331639,-0.016856452,2.905064235
2.742340042,2.510461092,1.662588954,0.137370139,3.014214239
2.752372042,2.487718582,1.926959634,0.28600648,3.159702024
2.762404042,2.457896948,2.248270988,0.422661275,3.35777045
2.772437042,2.399400473,2.674002647,0.539660156,3.632994064
2.782469042,2.198930264,3.286699057,0.615497172,4.002064687
2.792501042,1.483009815,3.602524281,0.485601068,3.925978566
2.802533042,0.338499814,3.241092205,0.08823029,3.259914936
2.812566042,-1.245511413,2.311865807,-0.57753998,2.68878683
2.822598042,-3.026860952,0.947419822,-1.381266594,3.459391413
2.832630042,-4.789783478,-0.535856426,-2.178370953,5.289089513
2.842662042,-6.381961346,-1.458150148,-2.852673054,7.140964642
2.852695042,-7.429546356,-1.953632474,-3.203352213,8.323238811
2.862727042,-6.729661942,-2.258756399,-2.91194129,7.672661363
2.872759042,-3.676444054,-1.880728841,-1.962369561,4.572119437
2.882791042,0.749578178,-1.436671495,-0.719291151,1.772927576
2.892824042,3.087821484,-0.467116058,0.02502122,3.123053792
2.902856042,3.153070688,0.276516795,0.272571892,3.176887115
2.912888042,2.568757772,0.583932281,0.494023919,2.68021511
2.922920042,1.822750449,0.537714183,0.714918435,2.030434464
2.932953042,1.054647326,0.387313336,0.864387095,1.417553404
2.942985042,0.3547135,0.326500565,0.916532815,1.035594846
2.953017042,-0.230574042,0.396464467,0.837800443,0.955122005
2.963049042,-0.674650609,0.516481638,0.627105832,1.056015365
2.973082042,-0.931370735,0.557249069,0.350777864,1.140623988
2.983114042,-0.991195738,0.466301054,0.072848536,1.09782174
2.993146042,-0.815439761,0.239437908,-0.115623578,0.857695358
3.003178042,-0.458415359,-0.08145836,-0.194033712,0.504409742
3.013211042,-0.034350105,-0.379785597,-0.193412513,0.427580904
3.023243042,0.304687351,-0.5253582,-0.152875736,0.626264011
3.033275042,0.409436941,-0.472021401,-0.127835914,0.637796859
3.043307042,0.244454652,-0.32619229,-0.153878435,0.435704096
3.053340042,-0.022365108,-0.225092217,-0.19952327,0.301622678
3.063372042,-0.218017161,-0.20088701,-0.217885494,0.367914612
3.073404042,-0.243679911,-0.179858193,-0.178731367,0.351672817
3.083436042,-0.122630186,-0.098877586,-0.078952052,0.176205466
3.093469042,0.061789162,0.058351878,0.064918503,0.1069451
3.103501042,0.188886389,0.231250152,0.207525447,0.363622761
3.113533042,0.186686367,0.35003829,0.284400851,0.488121345
3.123565042,0.079070687,0.362521321,0.27347976,0.460939324
3.133597042,-0.069188237,0.293304622,0.186151654,0.354213286
3.143630042,-0.159998044,0.189794749,0.070210665,0.257974725
3.153662042,-0.16275844,0.084863544,-0.02580028,0.185358531
3.163694042,-0.105100743,-0.001969618,-0.080947153,0.132674366
3.173726042,-0.023525206,-0.083961025,-0.096425176,0.130002706
3.183759042,0.034638762,-0.165532038,-0.100839369,0.196899156
3.193791042,0.066994049,-0.237942934,-0.101254158,0.267128147
3.203823042,0.079790272,-0.280607849,-0.100724988,0.308630484
3.213855042,0.095414564,-0.276226759,-0.098586276,0.308422462
3.223888042,0.109160736,-0.228035003,-0.077193104,0.264338427
3.233920042,0.110917598,-0.141144916,-0.0400922,0.183934732
3.243952042,0.077363096,-0.036781497,0.008558691,0.086088201
3.253984042,0.012725193,0.069262981,0.046555474,0.084419804
3.264017042,-0.062207639,0.15191792,0.069725782,0.178355065
3.274049042,-0.111750111,0.200657755,0.079186656,0.242944744
3.284081042,-0.119565427,0.214290485,0.072913043,0.255993389
3.294113042,-0.091602452,0.20000197,0.066589028,0.229838847
3.304146042,-0.055894785,0.166474909,0.061369501,0.186022412
3.314178042,-0.024651986,0.111554384,0.050470855,0.124897591
3.324210042,-0.010346282,0.045469102,0.030896356,0.055938087
3.3342425,3.63529E-05,-0.032036573,0.00145664,0.032069691
3.3442755,0.014069614,-0.094671465,-0.031219015,0.100674065
3.3543075,0.037270516,-0.132715613,-0.061924528,0.151119729
3.3643395,0.062829673,-0.143014848,-0.075783357,0.173620079
3.3743715,0.075593449,-0.139001772,-0.073571272,0.174495256
3.3844045,0.067974411,-0.122674465,-0.055702791,0.150905089
3.3944365,0.045401357,-0.100794367,-0.031436525,0.1149306
3.4044685,0.014632792,-0.064399078,-0.012207974,0.067159471
3.4145005,-0.00678242,-0.014127782,0.006025627,0.016789985
3.4245335,-0.02287537,0.035463471,0.018860998,0.04622421
3.4345655,-0.033527531,0.073015407,0.028018743,0.08509051
3.4445975,-0.041229926,0.093137987,0.03279965,0.107006581
3.4546295,-0.043474942,0.094988458,0.036569156,0.110680535
3.4646625,-0.039120674,0.078834787,0.035812549,0.095015207
3.4746945,-0.026344147,0.057698272,0.02722612,0.069024389
3.4847265,-0.001459836,0.030331897,0.013877825,0.033387859
3.4947585,0.017554319,-0.007672911,0.000366078,0.019161463
3.5047915,0.030471183,-0.033663496,-0.011142507,0.04675339
3.5148235,0.030363038,-0.051204812,-0.017757533,0.062122273
3.5248555,0.020155674,-0.057946336,-0.021011118,0.064849796
3.5348875,0.007819411,-0.051374916,-0.020279413,0.055783329
3.5449205,-0.001839076,-0.034745608,-0.015934465,0.038269395
3.5549525,-0.005687298,-0.015572483,-0.014711213,0.022164552
3.5649845,-0.00816537,0.006703794,-0.007915093,0.013200864
3.5750165,-0.011039237,0.024327334,0.002902805,0.026872109
3.5850495,-0.014703481,0.035142165,0.012957303,0.040237492
3.5950815,-0.011847733,0.03038469,0.018960865,0.037724164
3.6051135,-0.001271787,0.026780901,0.024422476,0.036266947
3.6151455,0.006524305,0.017094754,0.017664375,0.0254328
3.6251785,0.010099333,0.005171781,0.008278862,0.014045761
3.6352105,0.011618189,-0.007291117,-0.002705417,0.013980772
3.6452425,0.011479172,-0.025611268,-0.012096521,0.030561975
3.6552745,0.008613544,-0.036923941,-0.021109253,0.04339552
3.6653075,0.007022039,-0.040679,-0.020887945,0.046264418
3.6753395,0.005861122,-0.039179645,-0.018755289,0.043831019
3.6853715,0.007011608,-0.029802389,-0.015780006,0.034443485
3.6954035,0.001423015,-0.013756603,-0.007241043,0.015610951
3.7054365,-0.002912079,0.001024474,-0.002455608,0.003944587
3.7154685,-0.004876889,0.016381387,0.007991834,0.018868049
3.7255005,-0.011786993,0.030719578,0.017820762,0.037419317
3.7355325,-0.015563123,0.040665127,0.02275434,0.049128641
3.7455645,-0.015583096,0.044483833,0.020766554,0.051506253
3.7555975,-0.01161657,0.036601841,0.019518266,0.043076701
3.7656295,-0.009461008,0.022511322,0.011630514,0.02704698
3.7756615,-0.003411632,0.010293237,0.000797107,0.010873148
3.7856935,0.002908049,-0.005280663,-0.003571543,0.007007001
3.7957265,0.00670353,-0.020657653,-0.008710042,0.023399589
3.8057585,0.008203955,-0.032039203,-0.014755949,0.036215376
3.8157905,0.012634421,-0.038950309,-0.016773429,0.044250459
3.8258225,0.011538264,-0.037968133,-0.018136701,0.043630844
3.8358555,0.0094488,-0.034392949,-0.01916955,0.040492301
3.8458875,0.006071913,-0.023759747,-0.012473031,0.027513091
3.8559195,0.001480032,-0.012417199,-0.004423884,0.013264542
3.8659515,-0.001480071,0.000179287,0.002974111,0.003326874
3.8759845,-0.004047364,0.00847267,0.008129125,0.012419741
3.8860165,-0.002745877,0.018310653,0.012618416,0.022406345
3.8960485,-0.005817818,0.022674676,0.011648159,0.026147037
3.9060805,-0.004688105,0.025723996,0.008627068,0.027534135
3.9161135,-0.005884111,0.019943202,0.005321018,0.021463161
3.9261455,-0.004303258,0.015051772,0.0054619,0.016580296
3.9361775,-0.004493955,0.005338528,0.00201131,0.007262292
3.9462095,-0.000115186,-0.005640887,-0.000303776,0.005650235
3.9562425,0.001006213,-0.010540471,-0.003591381,0.011180877
3.9662745,0.000416323,-0.008912747,-0.006855085,0.011251781
3.9763065,0.006151513,-0.011661597,-0.009526105,0.016265934
3.9863385,0.003105123,-0.013934871,-0.007034983,0.015915823
3.9963715,0.002117375,-0.007740496,-0.003812562,0.008884491
4.0064035,0.000503234,-0.003933507,0.000592839,0.004009636
4.0164355,0.000692083,-0.002033054,0.002098514,0.003002674
4.0264675,0.000661457,0.005487979,0.001742982,0.005795983
4.0365005,-0.002275829,0.007404476,0.002237147,0.008062908
4.0465325,-0.001631078,0.003297349,0.002108251,0.004240005
4.0565645,-1.1645E-06,0.002793603,0.001669886,0.003254649
4.0665965,-0.000607034,0.002872166,-0.000400189,0.002962766
4.0766295,0.000360741,-0.001826045,-0.000902457,0.002068575
4.0866615,0.000852893,-0.007842658,-0.00133815,0.008001585
4.0966935,0.001204677,-0.009399672,-0.003757629,0.010194354
4.1067255,0.001003075,-0.009660129,-0.004935811,0.010894332
4.1167585,0.002400451,-0.004608481,-0.006362536,0.008214751
4.1267905,-8.32133E-05,-0.001936532,-0.005333224,0.005674536
4.1368225,0.001152232,-0.002885184,-0.003279861,0.004517678
4.1468545,-0.000529821,-0.000958919,-0.000863841,0.001395155
4.1568875,0.001200682,0.005147845,0.003947695,0.006597442
4.1669195,-0.003686485,0.010126625,0.003529578,0.011340046
4.1769515,-0.003281917,0.011808438,0.003994761,0.012890629
4.1869835,-0.003881129,0.00901931,0.004797437,0.010928244
4.1970165,-7.5436E-05,0.009602261,0.004969466,0.010812248
4.2070485,-0.000969459,0.005620036,0.002876755,0.006387517
4.2170805,0.00196822,-0.000490169,-0.001029556,0.002274673
4.2271125,-0.000287478,-0.004712344,-0.001459923,0.00494168
4.2371455,0.003142618,-0.00751655,-0.00297093,0.008671851
4.2471775,0.003719991,-0.00967371,-0.004656445,0.011362283
4.2572095,0.002215598,-0.011475505,-0.005619644,0.012968288
4.2672415,0.004655319,-0.009266679,-0.005733894,0.011849932
4.2772745,0.001398253,-0.006000179,-0.004157834,0.007432687
4.2873065,-0.000337063,-0.00745027,-0.004088059,0.008504844
4.2973385,7.09837E-05,-0.003347741,-0.001162448,0.00354453
4.3073705,0.000818533,0.003331467,0.00193907,0.003940642
4.3174035,-0.002165579,0.00388674,0.001580612,0.004721739
4.3274355,-0.001772763,0.00603378,0.003215793,0.007063322
4.337467375,-0.001892062,0.005737571,0.002308587,0.006467549
4.347499375,-0.003533102,0.005958346,0.003092355,0.007585998
4.357532375,-0.003087213,0.005449931,0.002430811,0.006718741
4.367564375,-0.001420075,0.004487198,0.002373021,0.005270938
4.377596375,-0.003042247,0.000928729,0.00050742,0.003221068
4.387628375,-0.002412942,0.001433132,-0.000206573,0.002814041
4.397661375,0.000679308,-0.005286976,0.000544956,0.005358223
4.407693375,0.002927549,-0.005776731,-0.002925409,0.007106277
4.417725375,-0.000598288,-0.004442696,-0.00396995,0.005987988
4.427757375,0.001967667,-0.004876526,-0.001445539,0.005453604
4.437790375,0.002059108,-0.003349137,-0.000774648,0.004007084
4.447822375,0.00029503,-0.004532379,0.000302068,0.004552005
4.457854375,-0.000798819,-0.001006187,8.45133E-05,0.001287504
4.467886375,-0.002777016,-0.002500221,0.001225678,0.003932582
4.477919375,-4.6358E-06,-0.002141964,0.001734736,0.002756328
4.487951375,-0.002212396,0.00062799,0.001386661,0.002685498
4.497983375,0.000527388,0.000263109,9.66988E-05,0.000597256
4.508015375,0.000948167,-0.002607512,0.000577133,0.002833941
4.518048375,-0.000131935,-0.00199549,0.000436179,0.002046861
4.528080375,-0.000443258,-0.00064873,-0.001470644,0.00166737
4.538112375,-0.000658694,-0.00583028,-0.000239801,0.005872269
4.548144375,0.000338127,-0.003249144,-7.30716E-06,0.003266699
4.558177375,0.000792937,-0.001528865,-0.00013726,0.00172772
4.568209375,0.00062862,-0.002442063,0.001661705,0.00301995
4.578241375,0.000320048,-0.000497547,0.000664798,0.00088991
4.588273375,-0.000874913,0.002785066,-8.48819E-05,0.002920491
4.598306375,-0.002871777,0.005375468,0.001031924,0.006181232
4.608338375,-0.003646224,0.001082186,0.000989047,0.003929922
4.618370375,-0.000490963,0.002912156,0.000933995,0.003097425
4.628402375,-0.001988458,0.001998158,0.00078619,0.002926551
4.638435375,0.000699465,0.002024557,-0.000407505,0.0021804
4.648467375,0.000222759,0.000241039,-0.000235199,0.000403782
4.658499375,0.00155706,-0.002223596,-0.003143646,0.004153472
4.668531375,-0.001911707,-0.001687235,-0.002464807,0.003546359
4.678564375,0.000461431,-0.003674451,-0.001753276,0.004097375
4.688596375,0.000618824,-0.004075789,0.00116475,0.004283882
4.698628375,0.003225557,-0.00346777,-0.003073748,0.005646022
4.708660375,0.0013182,-0.00085734,-0.003152044,0.003522509
4.718693375,-0.000626503,0.001121078,0.000707825,0.001466403
4.728725375,0.000920261,-0.001101064,-0.000740402,0.00161475
4.738757375,0.001207929,0.002171349,-0.00154988,0.002928477
4.748789375,0.000876365,-0.000264645,0.001229395,0.001532796
4.758822375,0.000697727,0.001763611,0.001100668,0.002192856
4.768854375,0.000617565,0.003348724,0.002593636,0.004280454
4.778886375,-0.003430293,0.00123586,0.001466826,0.00393012
4.788918375,0.000612918,0.000257681,0.002034345,0.00214024
4.798951375,0.000650982,0.0006662,0.000287038,0.000974675
4.808983375,-0.002311519,0.000812141,-0.001111388,0.00269033
4.819015375,0.001402255,-0.003151406,0.000935718,0.003573968
4.829047375,0.001804392,-0.002194799,0.000247291,0.002852039
4.839080375,0.001927985,-0.001214931,-0.000548668,0.002343975
4.849112375,0.001289093,-0.002517483,-6.18421E-05,0.002829011
4.859144375,-0.000944013,-0.001422541,-0.000487857,0.001775609
4.869176375,-0.000251591,0.000248592,-0.000307295,0.000468536
4.879209375,0.001819296,-0.00118692,-0.001181846,0.002472929
4.889241375,0.000410218,-0.002296659,0.001483179,0.002764551
4.899273375,0.002068585,-0.000907519,0.000165215,0.002264935
4.909305375,-0.000176193,0.000914882,0.001110903,0.001449883
4.919338375,0.000403523,0.001260919,0.001007174,0.001663475
4.929370375,0.000623501,-0.002023824,0.000877744,0.00229239
4.939402375,-0.001127389,-0.000585381,-0.000652659,0.00142816
4.949434375,-0.002440062,0.000111302,-0.001248142,0.002743018
4.959467375,0.002203279,-0.002506424,-0.001043408,0.003496469
4.969499375,0.003538055,0.000885645,-0.003269811,0.004898354
4.979531375,0.01047294,0.007232686,-0.007316466,0.014680766
4.989563375,0.007461704,0.026013829,-0.006253331,0.027775897
4.999596375,-0.010732045,0.053073622,-0.00326359,0.05424608
5.009628375,-0.02212345,0.040706698,-0.011466659,0.047728048
5.019660375,-0.002020818,0.002439529,-0.062398154,0.062478514
5.029692375,0.023938611,-0.128730744,-0.13347818,0.186978838
5.039725375,-0.023113348,-0.163003817,-0.113521919,0.199979242
5.049757375,-0.152963758,0.029197581,0.032188941,0.159017413
5.059789375,-0.183270514,0.118179776,0.193114176,0.291286158
5.069821375,-0.001185127,-0.055083614,0.189525038,0.197371095
5.079854375,0.225743875,-0.280624688,0.000584612,0.360153931
5.089886375,0.262679011,-0.280355453,-0.209596321,0.437641475
5.099918375,0.157351524,0.002471557,-0.281135947,0.322184778
5.109950375,0.028271565,0.167120159,-0.154765233,0.229522779
5.119983375,-0.067518584,-0.009556786,0.066302493,0.095111051
5.130015375,-0.083433367,-0.194025695,0.197013378,0.288827576
5.140047375,-0.075394124,-0.170816526,0.151463002,0.240423793
5.150079375,-0.090380259,-0.030471675,-0.008211345,0.095731606
5.160112375,-0.106365316,0.179020554,-0.147345275,0.255093256
5.170144375,-0.071903214,0.270040751,-0.156769946,0.320419873
5.180176375,-0.006468288,0.099703155,-0.029715182,0.104237949
5.190208375,0.044584509,-0.101896808,0.122409105,0.165392645
5.200241375,0.071167618,-0.099661365,0.170914933,0.210259677
5.210273375,0.091966905,0.015452174,0.091415308,0.13058882
5.220305375,0.078881226,0.052610289,-0.035903431,0.101386127
5.230337375,0.027303781,-0.021327585,-0.114043511,0.119190121
5.240370375,-0.024971657,-0.127063483,-0.091597326,0.158615203
5.250402375,-0.04680638,-0.13289313,-0.021364976,0.142505731
5.260434375,-0.038612913,-0.040735673,0.029573377,0.063442389
5.270466375,-0.032936919,0.03308795,0.016805118,0.049619201
5.280499375,-0.027118186,0.025337689,-0.033007842,0.049668018
5.290531375,-0.012275857,-0.010519911,-0.061347339,0.063441794
5.300563375,0.005050651,-0.004978266,-0.041542735,0.042143695
5.310595375,0.012808173,0.038804367,0.016032942,0.04389628
5.320628375,0.014759732,0.056258496,0.06408722,0.086545016
5.330660125,0.012797516,0.021054702,0.070057496,0.074263919
5.340692125,0.000683893,-0.009101049,0.029133156,0.03052929
5.350724125,-0.009130122,-0.01384334,-0.024685601,0.029738461
5.360757125,-0.004869105,-0.00193337,-0.059818078,0.060047053
5.370789125,0.00986803,-0.000114964,-0.060884938,0.06167955
5.380821125,0.024081601,-0.01238505,-0.035504017,0.044652527
5.390853125,0.016334465,-0.01865706,-0.018763388,0.031096067
5.400886125,-0.010363725,-0.016261013,-0.0187799,0.02691676
5.410918125,-0.042816475,-0.019065322,-0.023966938,0.052641725
5.420950125,-0.066751547,-0.054022688,-0.011239462,0.086605689
5.430982125,-0.106142096,-0.187056094,0.056251697,0.222306951
5.441015125,-0.140435398,-0.282377005,0.146431401,0.347708253
5.451047125,-0.096169122,-0.120053351,0.174960792,0.232964774
5.461079125,0.03836951,0.162648916,0.094931468,0.192194883
5.471111125,0.190789938,0.178196192,-0.026708415,0.262427176
5.481144125,0.22926347,-0.050499402,-0.096449122,0.253799845
5.491176125,0.109418295,-0.169226855,-0.071237244,0.213740115
5.501208125,-0.031520642,-0.070529327,-0.007965879,0.077662037
5.511240125,-0.089936279,0.059809506,0.02508981,0.110883767
5.521273125,-0.088540301,0.078918867,-0.006040866,0.118760534
5.531305125,-0.110856257,0.077078626,-0.060840197,0.148093733
5.541337125,-0.15367797,0.220217615,-0.065494552,0.276409575
5.551369125,-0.13524437,0.244783685,0.0072465,0.279754542
5.561402125,-0.071663789,0.088471703,0.155038342,0.192353395
5.571434125,-0.003310033,0.234078705,0.289120793,0.372014287
5.581466125,0.045830831,0.610450625,0.30752942,0.685072825
5.591498125,0.045800474,0.504056513,0.203386784,0.545469372
5.601531125,0.023106121,-0.021090405,0.038303882,0.049455893
5.611563125,-0.029136844,-0.366097599,-0.093310863,0.378923904
5.621595125,-0.07970389,-0.364915311,-0.115665108,0.391017022
5.631627125,-0.066092476,-0.239534214,-0.08101818,0.261359524
5.641660125,0.008212076,-0.114960052,-0.079726271,0.140141108
5.651692125,0.09452939,-0.026006216,-0.134969279,0.166819769
5.661724125,0.117736988,-0.025698192,-0.171649337,0.209728134
5.671756125,0.06621787,-0.095083922,-0.126671746,0.171672624
5.681789125,-0.014503106,-0.124429092,-0.012406818,0.125884344
5.691821125,-0.047678903,-0.024138171,0.095760137,0.109662815
5.701853125,-0.022169001,0.145951957,0.132572681,0.198416113
5.711885125,0.015730444,0.206968173,0.102335408,0.231421277
5.721918125,0.022663981,0.160650522,0.032496873,0.165463872
5.731950125,-0.00636634,0.084326722,-0.019787902,0.086850949
5.741982125,-0.041636419,0.014349822,-0.029770102,0.053157951
5.752014125,-0.051406227,-0.035531987,-0.0037393,0.062602752
5.762047125,-0.021423232,-0.066287197,0.015029436,0.07126592
5.772079125,0.023287248,-0.10535071,0.001110691,0.107899498
5.782111125,0.060986627,-0.253481865,-0.053344402,0.266116609
5.792143125,0.103610523,-0.426322639,-0.117044821,0.454076671
5.802176125,0.129864797,-0.407567948,-0.15928936,0.456453281
5.812208125,0.139331535,-0.24768801,-0.173104778,0.332758007
5.822240125,0.069628023,0.017950356,-0.110479191,0.131817785
5.832272125,-0.123923331,0.90921104,0.133881286,0.927332683
5.842305125,0.007737341,0.236284137,0.196856946,0.307640564
5.852337125,0.063200869,-0.568081379,0.112798788,0.582609963
5.862369125,0.041525047,-0.617290497,0.000451184,0.618685777
5.872401125,0.013466516,-0.14644438,-0.0626138,0.159836765
5.882434125,0.067175075,0.121186793,-0.09023726,0.165352631
5.892466125,0.184786662,0.080515258,-0.071935751,0.214017685
5.902498125,0.290934026,-0.182036281,-0.025796991,0.344158829
5.912530125,0.309023559,-0.394755751,-0.008466469,0.501397391
5.922563125,0.23360312,-0.584135473,-0.024315076,0.629583903
5.932595125,0.163406447,-0.685582757,-0.06598796,0.707869899
5.942627125,0.117407091,-0.332690418,-0.042133387,0.355306292
5.952659125,0.123469777,0.033868659,0.056829143,0.140076492
5.962692125,0.186983153,-0.023976123,0.09972398,0.213266093
5.972724125,0.23670198,-0.205165878,0.048664257,0.317000118
5.982756125,0.202642784,-0.250984609,-0.048270874,0.326170889
5.992788125,0.090500534,-0.310184836,-0.099014208,0.337947914
6.002821125,-0.005306892,-0.407981277,-0.058289964,0.412158471
6.012853125,-0.028012738,-0.374287248,0.043747988,0.377875037
6.022885125,0.027250219,-0.303271681,0.091909468,0.318062317
6.032917125,0.107790865,-0.243042961,0.054824416,0.27146725
6.042950125,0.143250585,-0.156521082,-0.008163406,0.21233516
6.052982125,0.119321287,-0.122754857,-0.04827274,0.177866753
6.063014125,0.074821174,-0.132912263,-0.050354332,0.16062203
6.073046125,0.04946921,-0.129549488,-0.049254715,0.147160795
6.083079125,0.063218653,-0.081701592,-0.049719654,0.114646379
6.093111125,0.087666743,-0.071088895,-0.054276589,0.125239917
6.103143125,0.112821616,-0.053337254,-0.045610789,0.132868069
6.113176125,0.119589776,-0.072087243,-0.043001957,0.146107678
6.123208125,0.087752759,-0.094965428,-0.050945304,0.138976269
6.133240125,0.039659262,-0.07325694,-0.067968756,0.107513664
6.143272125,0.014782934,-0.068093002,-0.078784525,0.105176963
6.153305125,0.004445874,-0.026004665,-0.08647573,0.09041051
6.163337125,0.001945973,0.01714886,-0.079651251,0.081499645
6.173369125,-0.002709499,0.004457566,-0.064384416,0.064595389
6.183401125,-0.01083185,0.020261081,-0.032077752,0.039456591
6.193433125,-0.009418776,-0.02671708,-0.002608542,0.028448553
6.203466125,-0.026278732,-0.095465645,-0.000952048,0.099021046
6.213498125,-0.036210723,-0.145389795,-0.017739017,0.150877705
6.223530125,-0.040588759,-0.0860807,0.000464638,0.095171163
6.233563125,-0.027072949,-0.031861939,0.031254243,0.052201106
6.243595125,-0.04864106,-0.003849989,0.020354383,0.052868478
6.253627125,-0.075673744,-0.026771018,-0.008545708,0.080723182
6.263659125,-0.03548054,0.012772838,-0.034500401,0.051110584
6.273692125,-0.028905993,0.08027225,-0.039227515,0.093904145
6.283724125,-0.106103502,0.154048666,-0.015056092,0.187658282
6.293756125,-0.260885894,0.208092451,0.025483876,0.334683949
6.303788125,-0.399268568,0.131763697,0.032762982,0.421723219
6.313821125,-0.353391379,0.021368213,0.013547741,0.354295934
6.323853125,-0.121960543,-0.011049613,0.040590212,0.129011757
6.3338855,0.175723344,-0.119922839,0.083800271,0.228654032
6.3439175,0.365808904,-0.213143811,0.058404222,0.427384477
6.3539505,0.370635331,-0.229412526,0.006310392,0.435936322
6.3639825,0.149831578,-0.156926602,-0.010782574,0.217236563
6.3740145,-0.070845135,-0.082661696,0.025896877,0.11190459
