"Time (s)","Gyroscope x (rad/s)","Gyroscope y (rad/s)","Gyroscope z (rad/s)","Absolute (rad/s)"
1.114620833e-2,-1.068858862e0,-1.030727506e0,-2.706335485e-1,1.509337926e0
2.117920833e-2,-1.270006299e0,-1.329208970e0,-2.979876697e-1,1.862393389e0
3.121258333e-2,-1.439940810e0,-1.572959065e0,-3.140455186e-1,2.155517188e0
4.124558333e-2,-1.602283359e0,-1.720923424e0,-3.671204746e-1,2.379845969e0
5.127858333e-2,-1.740832925e0,-1.559964657e0,-4.695792198e-1,2.384217617e0
6.131158333e-2,-1.835500836e0,-1.375629187e0,-5.653832555e-1,2.362430360e0
7.134458333e-2,-1.883252263e0,-1.240422964e0,-5.198217034e-1,2.314195934e0
8.137758333e-2,-1.863642335e0,-1.415516138e0,-3.237877488e-1,2.362559459e0
9.141158333e-2,-1.762401938e0,-1.681240797e0,-2.586400509e-2,2.435836644e0
1.014445833e-1,-1.586034894e0,-1.751351953e0,3.036326766e-1,2.382211819e0
1.114775833e-1,-1.346159458e0,-1.588783503e0,5.621402860e-1,2.156937645e0
1.215105833e-1,-1.077388406e0,-1.255949020e0,7.212007642e-1,1.805077356e0
1.315435833e-1,-8.476601243e-1,-8.642164469e-1,8.211241961e-1,1.462751756e0
1.415765833e-1,-7.258228660e-1,-5.752866268e-1,9.283710122e-1,1.311352840e0
1.516095833e-1,-6.857187748e-1,-3.280051053e-1,1.040941834e0,1.288936573e0
1.616425833e-1,-6.759409904e-1,-1.207040995e-1,1.076171756e0,1.276562317e0
1.716755833e-1,-6.317649484e-1,4.358984157e-2,1.043818712e0,1.220894970e0
1.817085833e-1,-5.086216927e-1,2.032133192e-1,9.723077416e-1,1.115963272e0
1.917415833e-1,-3.300750554e-1,3.771687746e-1,9.057510495e-1,1.035176695e0
2.017745833e-1,-1.147987247e-1,6.703657508e-1,8.508417606e-1,1.089266124e0
2.118075833e-1,8.279879391e-2,1.078261018e0,7.844167352e-1,1.335968591e0
2.218405833e-1,2.275826037e-1,1.472888231e0,7.185927033e-1,1.654560079e0
2.318735833e-1,2.897917926e-1,1.502792597e0,6.633301377e-1,1.668044287e0
2.419065833e-1,-2.908633277e-2,-2.452307194e-1,2.352272719e-1,3.410513011e-1
2.519395833e-1,-8.911753446e-2,-5.160960555e-1,-1.355684102e-1,5.409952563e-1
2.619725833e-1,-2.557611093e-2,-5.410006046e-1,-3.619842529e-1,6.514356384e-1
2.720055833e-1,2.958598547e-2,-5.723854899e-1,-5.539070964e-1,7.970655877e-1
2.820385833e-1,9.404673427e-2,-5.620883703e-1,-7.497813106e-1,9.417856115e-1
2.920715833e-1,1.368303746e-1,-7.543702722e-1,-8.587091565e-1,1.151163965e0
3.021045833e-1,1.355962604e-1,-8.790666461e-1,-8.799915314e-1,1.251211257e0
3.121375833e-1,5.872270092e-2,-8.962836862e-1,-8.624557853e-1,1.245232020e0
3.221705833e-1,-1.816968434e-2,-8.508634567e-1,-7.794029713e-1,1.154022422e0
3.322035833e-1,-3.095929697e-2,-5.076475739e-1,-5.233158469e-1,7.297424292e-1
3.422365833e-1,3.637740016e-2,8.491510153e-2,-1.753591895e-1,1.982037715e-1
3.522695833e-1,1.657666266e-1,3.820778430e-1,1.128949448e-1,4.315174633e-1
3.623025833e-1,2.954034209e-1,3.971606791e-1,2.507697344e-1,5.548740810e-1
3.723355833e-1,4.339015186e-1,4.097287953e-1,2.192398012e-1,6.357785023e-1
3.823685833e-1,4.652767479e-1,3.717790246e-1,1.300361454e-1,6.095994541e-1
3.924015833e-1,2.839998603e-1,2.156194448e-1,1.464861780e-1,3.854943138e-1
4.024345833e-1,1.312867459e-2,-2.621280262e-3,2.118023336e-1,2.122250261e-1
4.124675833e-1,-2.577973306e-1,-2.340511084e-1,2.239159644e-1,4.139779512e-1
4.225005833e-1,-4.512749016e-1,-1.418034732e-1,3.203288019e-1,5.712860957e-1
4.325335833e-1,-5.845555067e-1,1.141477227e-1,4.165873230e-1,7.268286185e-1
4.425665833e-1,-5.862678885e-1,2.473433316e-1,4.371892810e-1,7.720254065e-1
4.525995833e-1,-5.183619261e-1,3.469204903e-1,4.372512698e-1,7.617359030e-1
4.626325833e-1,-4.353738129e-1,3.645258546e-1,3.942098022e-1,6.912530823e-1
4.726655833e-1,-3.710353673e-1,3.267929852e-1,3.145695031e-1,5.860161015e-1
4.826985833e-1,-3.514973521e-1,2.307364941e-1,1.687244177e-1,4.530536915e-1
4.927315833e-1,-3.588628173e-1,4.965939373e-2,2.750983648e-2,3.633254300e-1
5.027645833e-1,-3.806139231e-1,-1.470278352e-1,-3.426564485e-2,4.094609593e-1
5.127975833e-1,-4.150418639e-1,-2.593487203e-1,3.526183311e-3,4.894220484e-1
5.228305833e-1,-4.875613451e-1,-2.644428313e-1,6.523801386e-2,5.584819377e-1
5.328635833e-1,-5.878817439e-1,-2.602969408e-1,6.804868579e-2,6.465215123e-1
5.428965833e-1,-7.104491591e-1,-2.916546166e-1,2.087131888e-2,7.682682052e-1
5.529295833e-1,-8.399439454e-1,-3.538779616e-1,-3.221048415e-2,9.120158762e-1
5.629625833e-1,-9.601510763e-1,-3.776881993e-1,-7.128411531e-2,1.034224294e0
5.729955833e-1,-1.058395386e0,-3.491006792e-1,-8.988406509e-2,1.118101615e0
5.830285833e-1,-1.118081331e0,-1.947832853e-1,-1.319471002e-1,1.142565722e0
5.930615833e-1,-1.126822114e0,1.620743051e-2,-1.546684802e-1,1.137503009e0
6.030945833e-1,-1.077656746e0,2.782523632e-1,-1.373273134e-1,1.121439803e0
6.131275833e-1,-9.578213096e-1,5.477404594e-1,-9.129139781e-2,1.107147412e0
6.231605833e-1,-7.909505367e-1,6.449402571e-1,-1.231402345e-2,1.020638193e0
6.331935833e-1,-5.677580833e-1,5.493879318e-1,9.121879935e-2,7.952969321e-1
6.432265833e-1,-2.947566211e-1,4.280362129e-1,2.164443731e-1,5.629783583e-1
6.532595833e-1,-6.897695363e-3,2.555972934e-1,3.021590710e-1,3.958252882e-1
6.632925833e-1,2.432889789e-1,2.510681003e-2,3.227549195e-1,4.049575499e-1
6.733255833e-1,3.874926865e-1,-1.425972879e-1,3.126743436e-1,5.179283867e-1
6.833585833e-1,3.777402043e-1,-2.278283089e-1,2.543761432e-1,5.092156936e-1
6.933915833e-1,2.593916357e-1,-1.717563421e-1,1.484272033e-1,3.446953675e-1
7.034245833e-1,7.824153453e-2,2.635620534e-2,1.242489461e-2,8.349110906e-2
7.134575833e-1,-1.119818389e-1,3.413875103e-1,-1.726436168e-1,3.986115689e-1
7.234905833e-1,-2.887757719e-1,6.743640900e-1,-4.192294478e-1,8.449329572e-1
7.335235833e-1,-4.345263243e-1,1.024937153e0,-6.890983582e-1,1.309261563e0
7.435565833e-1,-5.480850935e-1,1.305559874e0,-8.951718807e-1,1.675176573e0
7.535895833e-1,-5.988913178e-1,1.484870076e0,-9.843419194e-1,1.879478377e0
7.636225833e-1,-5.949453115e-1,1.499255419e0,-9.402396679e-1,1.867023666e0
7.736555833e-1,-5.505489111e-1,1.313067317e0,-7.884784341e-1,1.627558946e0
7.836885833e-1,-4.957820475e-1,9.525575638e-1,-5.689061284e-1,1.215244804e0
7.937215833e-1,-4.385345578e-1,5.355693102e-1,-3.326384723e-1,7.679813785e-1
8.037545833e-1,-3.983716965e-1,2.077499032e-1,-2.032272220e-1,4.931139164e-1
8.137875833e-1,-3.407624960e-1,1.340956092e-1,-2.471556962e-1,4.417993314e-1
8.238205833e-1,-2.349878550e-1,1.785685420e-1,-4.048846066e-1,5.010364865e-1
8.338535833e-1,-7.777371258e-2,2.015046477e-1,-5.675053596e-1,6.072192410e-1
8.438865833e-1,1.120239124e-1,1.196558401e-1,-6.747993231e-1,6.944213443e-1
8.539195833e-1,3.241730630e-1,-7.656171173e-2,-6.755755544e-1,7.532278541e-1
8.639525833e-1,5.183545947e-1,-2.922684550e-1,-5.880395770e-1,8.366019841e-1
8.739855833e-1,6.803098321e-1,-5.170019865e-1,-4.420464933e-1,9.620382653e-1
8.840185833e-1,7.823799849e-1,-6.587929130e-1,-2.596942484e-1,1.055257147e0
8.940515833e-1,8.243310452e-1,-6.574780941e-1,-8.036962897e-2,1.057477373e0
9.040845833e-1,7.757847905e-1,-8.341979980e-1,-8.256286383e-3,1.139208720e0
9.141175833e-1,6.426266432e-1,-9.785321951e-1,-8.123282343e-2,1.173496072e0
9.241505833e-1,4.361629486e-1,-1.009073615e0,-1.846319139e-1,1.114700239e0
9.341835833e-1,1.571000218e-1,-9.507901073e-1,-2.799898684e-1,1.003532048e0
9.442165833e-1,-2.214270532e-1,-8.546374440e-1,-3.331082165e-1,9.436080672e-1
9.542495833e-1,-6.754084229e-1,-7.747128010e-1,-3.121394515e-1,1.074145008e0
9.642825833e-1,-1.125756860e0,-6.797125340e-1,-1.666280925e-1,1.325557452e0
9.743155833e-1,-1.491623163e0,-5.766216516e-1,6.855376065e-2,1.600666051e0
9.843485833e-1,-1.737292647e0,-5.292780995e-1,2.796926200e-1,1.837538846e0
9.943815833e-1,-1.833359480e0,-5.550156236e-1,4.009067714e-1,1.957032336e0
1.004414583e0,-1.765444398e0,-5.748631358e-1,4.226930141e-1,1.904187735e0
1.014447583e0,-1.533733249e0,-5.582111478e-1,3.669939339e-1,1.672908220e0
1.024479625e0,-1.169636607e0,-5.120044947e-1,2.702540755e-1,1.305080710e0
1.034512625e0,-7.250670791e-1,-4.314249456e-1,1.579367816e-1,8.583669261e-1
1.044545625e0,-2.314949036e-1,-3.061402440e-1,4.552286118e-3,3.838391104e-1
1.054578625e0,3.027907312e-1,-2.153319418e-1,-1.451938450e-1,3.989126781e-1
1.064611625e0,8.211729527e-1,-2.407355607e-1,-2.206728905e-1,8.837279858e-1
1.074644625e0,1.271670699e0,-2.460155487e-1,-1.665635556e-1,1.305914789e0
1.084677625e0,1.593462348e0,-2.435867488e-1,-1.321580447e-2,1.612027114e0
1.094710625e0,1.779910445e0,-2.069959342e-1,1.314467788e-1,1.796721115e0
1.104743625e0,1.855918169e0,-1.221920922e-1,2.004815042e-1,1.870710023e0
1.114776625e0,1.837604165e0,-4.318254814e-2,1.860637367e-1,1.847504672e0
1.124809625e0,1.744837523e0,2.280312777e-2,1.458369642e-1,1.751070068e0
1.134842625e0,1.575835228e0,1.323715746e-1,1.310678124e-1,1.586807383e0
1.144875625e0,1.335475326e0,2.692034543e-1,1.066346392e-1,1.366504955e0
1.154908625e0,1.039214373e0,4.243324101e-1,6.541348249e-2,1.124412482e0
1.164941625e0,7.028073072e-1,5.385928750e-1,2.153923735e-2,8.857112029e-1
1.174974625e0,3.608580530e-1,5.824558139e-1,1.343484968e-2,6.853129247e-1
1.185007625e0,3.361894935e-2,5.881698728e-1,-1.310355123e-2,5.892756028e-1
1.195040625e0,-2.611520290e-1,5.527633429e-1,-1.010404080e-1,6.196425256e-1
1.205073625e0,-5.316866040e-1,5.609943867e-1,-2.183462679e-1,8.031689981e-1
1.215106625e0,-7.679523826e-1,5.829606652e-1,-3.399030268e-1,1.022315053e0
1.225139625e0,-9.716203213e-1,5.456135869e-1,-4.248778522e-1,1.192586024e0
1.235172625e0,-1.118433237e0,4.958015978e-1,-4.502140880e-1,1.303612233e0
1.245205625e0,-1.204121232e0,4.334833622e-1,-3.638504148e-1,1.330489719e0
1.255238625e0,-1.261628747e0,3.066261113e-1,-1.870049983e-1,1.311753611e0
1.265271625e0,-1.285957217e0,1.760009825e-1,7.523467764e-3,1.297967223e0
1.275304625e0,-1.264665842e0,3.061192855e-2,1.504074931e-1,1.273946308e0
1.285337625e0,-1.183859110e0,-1.393515319e-1,2.131172121e-1,1.210933602e0
1.295370625e0,-1.049620032e0,-3.225591183e-1,1.926777065e-1,1.114841377e0
1.305403625e0,-8.875560164e-1,-4.949474037e-1,1.397732049e-1,1.025799768e0
1.315436625e0,-7.349246740e-1,-7.121407986e-1,1.290197074e-1,1.031457647e0
1.325469625e0,-6.261891127e-1,-8.738093376e-1,1.955638528e-1,1.092657670e0
1.335502625e0,-5.787328482e-1,-9.192720652e-1,3.204884231e-1,1.132565967e0
1.345535625e0,-6.068065763e-1,-8.790575266e-1,4.345678687e-1,1.153171968e0
1.355568625e0,-7.044462562e-1,-6.716979146e-1,5.139154196e-1,1.100695996e0
1.365601625e0,-8.466398716e-1,-3.657979369e-1,5.127286911e-1,1.055224106e0
1.375634625e0,-1.009902239e0,-7.018201053e-2,4.607109725e-1,1.112242171e0
1.385667625e0,-1.172468781e0,1.369338930e-1,3.712186217e-1,1.237431695e0
1.395700625e0,-1.326953411e0,1.927329302e-1,2.801155150e-1,1.369823361e0
1.405733625e0,-1.463585496e0,1.214640811e-1,2.087566257e-1,1.483379707e0
1.415766625e0,-1.576815486e0,3.354285657e-2,1.769195199e-1,1.587064182e0
1.425799625e0,-1.682681441e0,2.438610978e-2,1.585333198e-1,1.690308945e0
1.435832625e0,-1.768329024e0,9.467698634e-2,1.438390017e-1,1.776693820e0
1.445865625e0,-1.815635800e0,1.735957712e-1,1.205400825e-1,1.827894626e0
1.455898625e0,-1.805715084e0,1.394130886e-1,9.676708281e-2,1.813672198e0
1.465931625e0,-1.729977131e0,-4.128691927e-2,9.111399204e-2,1.732866770e0
1.475964625e0,-1.594803810e0,-3.255381882e-1,7.748588175e-2,1.629533174e0
1.485997625e0,-1.418192863e0,-6.400103569e-1,5.088702962e-2,1.556751022e0
1.496030625e0,-1.229748011e0,-8.829998970e-1,2.864390798e-2,1.514195978e0
1.506063625e0,-1.071214795e0,-8.698548079e-1,3.759612143e-2,1.380420948e0
1.516096625e0,-9.520590901e-1,-6.195176840e-1,1.152934060e-1,1.141714168e0
1.526129625e0,-8.466905951e-1,-3.219805658e-1,2.472048402e-1,9.389710761e-1
1.536162625e0,-7.209879756e-1,-1.591308266e-1,3.686195612e-1,8.252433955e-1
1.546195625e0,-5.728352666e-1,-1.480243802e-1,4.471519291e-1,7.416173592e-1
1.556228625e0,-4.021404088e-1,-2.237230837e-1,4.694628119e-1,6.573920127e-1
1.566261625e0,-2.473143637e-1,-3.677692115e-1,4.260229170e-1,6.147471946e-1
1.576294625e0,-1.218344346e-1,-5.076253414e-1,3.496875763e-1,6.283379009e-1
1.586327625e0,-2.606582828e-2,-5.360391736e-1,2.751073539e-1,6.030766777e-1
1.596360625e0,9.147581458e-2,-4.081923962e-1,2.073279023e-1,4.668765533e-1
1.606393625e0,2.720754147e-1,-1.338737309e-1,9.485701472e-2,3.177185237e-1
1.616426625e0,5.242516994e-1,2.368278503e-1,-1.089663282e-1,5.854920458e-1
1.626459625e0,8.179224730e-1,5.983223915e-1,-3.628124297e-1,1.076391990e0
1.636492625e0,1.119124532e0,7.756577134e-1,-5.355477333e-1,1.463180092e0
1.646525625e0,1.429130554e0,6.422514319e-1,-5.733441710e-1,1.668419786e0
1.656558625e0,1.760910273e0,2.702634633e-1,-5.080556273e-1,1.852557111e0
1.666591625e0,2.161053419e0,-1.857687831e-1,-4.007843137e-1,2.205740236e0
1.676624625e0,2.705269575e0,-4.803187251e-1,-3.304507136e-1,2.767379126e0
1.686657625e0,3.425690651e0,-4.030316472e-1,-3.367307186e-1,3.465714720e0
1.696690625e0,4.312174320e0,-1.094743833e-1,-3.684844971e-1,4.329273938e0
1.706723625e0,5.311453819e0,3.578028455e-2,-3.123407960e-1,5.320749823e0
1.716756625e0,6.403955936e0,-2.819146812e-1,-8.308010548e-2,6.410696517e0
1.726789625e0,7.601796627e0,-1.098900914e0,2.597297132e-1,7.685203621e0
1.736822625e0,8.936547279e0,-2.388686657e0,5.410075188e-1,9.266088191e0
1.746855625e0,1.041160297e1,-3.767634153e0,6.085130572e-1,1.108904107e1
1.756888625e0,1.200061035e1,-4.903374195e0,5.146570206e-1,1.297391996e1
1.766921625e0,1.366061020e1,-5.423774719e0,3.075948656e-1,1.470116383e1
1.776954625e0,1.529600239e1,-5.505730152e0,-5.215845704e-1,1.626507928e1
1.786987625e0,1.680026436e1,-4.853968620e0,-1.450715661e0,1.754749184e1
1.797020625e0,1.752546883e1,-3.062843561e0,-2.237755775e0,1.793127489e1
1.807053625e0,1.758160973e1,-2.747129202e0,-2.589119434e0,1.798230405e1
1.817086625e0,1.749486351e1,-3.180947781e0,-2.853278875e0,1.800916096e1
1.827119625e0,1.739124870e1,-3.665619373e0,-3.158748865e0,1.805186947e1
1.837152625e0,1.726158142e1,-4.207811832e0,-3.512135983e0,1.811085235e1
1.847185625e0,1.710110092e1,-4.812811852e0,-3.927387953e0,1.819437239e1
1.857218625e0,1.689870644e1,-5.482249737e0,-4.393033028e0,1.830082186e1
1.867251625e0,1.662430573e1,-6.216615677e0,-4.927812099e0,1.842002127e1
1.877284625e0,1.627392578e1,-7.021516800e0,-5.527059555e0,1.856584891e1
1.887317625e0,1.581585121e1,-7.895117283e0,-6.187516212e0,1.872857131e1
1.897350625e0,1.525048637e1,-8.831301689e0,-6.910021782e0,1.892927957e1
1.907383625e0,1.455015278e1,-9.828670502e0,-7.686743259e0,1.916756979e1
1.917416625e0,1.368856430e1,-1.088296700e1,-8.512652397e0,1.944944765e1
1.927449625e0,1.264585876e1,-1.196210480e1,-9.364471436e0,1.976620905e1
1.937482625e0,1.139869022e1,-1.305393982e1,-1.022601604e1,2.012229827e1
1.947515625e0,9.927285194e0,-1.410667038e1,-1.105798244e1,2.048970757e1
1.957548625e0,8.236828804e0,-1.507683945e1,-1.182644939e1,2.085716524e1
1.967581625e0,6.328717709e0,-1.590519047e1,-1.248538113e1,2.118755516e1
1.977614625e0,4.235009193e0,-1.653643799e1,-1.299979210e1,2.145655328e1
1.987647625e0,2.006286621e0,-1.691573143e1,-1.332650757e1,2.162782837e1
1.997680625e0,-2.957627475e-1,-1.702084160e1,-1.343750286e1,2.168785392e1
2.007713625e0,-2.585730076e0,-1.682763672e1,-1.332186508e1,2.161775767e1
2.017746625e0,-4.800566673e0,-1.635222244e1,-1.299607086e1,2.143218321e1
2.027780375e0,-6.865532398e0,-1.563244820e1,-1.248069191e1,2.114891587e1
2.037813375e0,-8.735064507e0,-1.471731472e1,-1.182062721e1,2.079970991e1
2.047846375e0,-1.038083363e1,-1.365917110e1,-1.105154800e1,2.040763032e1
2.057879375e0,-1.178994370e1,-1.252032661e1,-1.022169971e1,2.000611146e1
2.067912375e0,-1.297143173e1,-1.134857273e1,-9.373445511e0,1.961911377e1
2.077945375e0,-1.394860363e1,-1.018795776e1,-8.536795616e0,1.926745718e1
2.087978375e0,-1.473606586e1,-9.067148209e0,-7.731527805e0,1.895102467e1
2.098011375e0,-1.537252331e1,-8.003848076e0,-6.978362083e0,1.868351129e1
2.108044375e0,-1.587320709e1,-7.006477356e0,-6.285802364e0,1.845428784e1
2.118077375e0,-1.626238251e1,-6.089532852e0,-5.660434246e0,1.826439189e1
2.128110375e0,-1.656564522e1,-5.240506172e0,-5.103955269e0,1.810894436e1
2.138143375e0,-1.679695511e1,-4.464253902e0,-4.614788055e0,1.798231166e1
2.148176375e0,-1.697011757e1,-3.754215479e0,-4.190186501e0,1.787838603e1
2.158209375e0,-1.709602165e1,-3.097863436e0,-3.827016592e0,1.779091819e1
2.168242375e0,-1.718453979e1,-2.490781784e0,-3.520526409e0,1.771740692e1
2.178275375e0,-1.723521996e1,-1.927581906e0,-3.275311470e0,1.764925053e1
2.188308375e0,-1.726961327e1,-1.398263216e0,-3.080403328e0,1.759782848e1
2.198341375e0,-1.728538895e1,-8.963174224e-1,-2.937579393e0,1.755612226e1
2.208374375e0,-1.728818321e1,-4.110159576e-1,-2.840299129e0,1.752476853e1
2.218407375e0,-1.727381897e1,6.515611708e-2,-2.791903973e0,1.749810832e1
2.228440375e0,-1.724265862e1,5.318024158e-1,-2.790881634e0,1.747515694e1
2.238473375e0,-1.721128273e1,1.000106573e0,-2.833934546e0,1.747168141e1
2.248506375e0,-1.716223145e1,1.474338889e0,-2.927689791e0,1.747247066e1
2.258539375e0,-1.710062790e1,1.963440299e0,-3.068054438e0,1.748426522e1
2.268572375e0,-1.702089119e1,2.473275900e0,-3.255819798e0,1.750509049e1
2.278605375e0,-1.692155266e1,3.002240658e0,-3.496591806e0,1.753791742e1
2.288638375e0,-1.679339790e1,3.561983585e0,-3.787198544e0,1.757978421e1
2.298671375e0,-1.662923813e1,4.161328316e0,-4.133484840e0,1.763331821e1
2.308704375e0,-1.641767883e1,4.799858093e0,-4.536228180e0,1.769621943e1
2.318737375e0,-1.615578842e1,5.487108707e0,-4.997550488e0,1.777901494e1
2.328770375e0,-1.582423306e1,6.237538338e0,-5.518529415e0,1.788204136e1
2.338803375e0,-1.541370106e1,7.043818951e0,-6.096686363e0,1.801019573e1
2.348836375e0,-1.490139675e1,7.917082787e0,-6.735003948e0,1.816843700e1
2.358869375e0,-1.428167629e1,8.846484184e0,-7.429770470e0,1.836921472e1
2.368902375e0,-1.353079891e1,9.836775780e0,-8.172121048e0,1.861795476e1
2.378935375e0,-1.262000656e1,1.087177753e1,-8.953472137e0,1.891096972e1
2.388968375e0,-1.153389359e1,1.192015553e1,-9.751989365e0,1.924115655e1
2.399001375e0,-1.025549793e1,1.296013546e1,-1.054409790e1,1.960403911e1
2.409034375e0,-8.781612396e0,1.394084549e1,-1.129981327e1,1.997873042e1
2.419067375e0,-7.100745678e0,1.481346607e1,-1.198191547e1,2.033287153e1
2.429100375e0,-5.237414360e0,1.551176929e1,-1.254559326e1,2.062613406e1
2.439133375e0,-3.232251167e0,1.598820305e1,-1.296196270e1,2.083464810e1
2.449166375e0,-1.131042600e0,1.619965935e1,-1.320046902e1,2.092750828e1
2.459199375e0,1.003285646e0,1.613430977e1,-1.323660278e1,2.089330484e1
2.469232375e0,3.102192879e0,1.579450226e1,-1.307955837e1,2.074041344e1
2.479265375e0,5.110444546e0,1.522834015e1,-1.273684120e1,2.049990514e1
2.489298375e0,6.972164631e0,1.449310875e1,-1.224076462e1,2.021132354e1
2.499331375e0,8.658864975e0,1.365304661e1,-1.161811352e1,1.990884693e1
2.509363375e0,1.014941311e1,1.275272751e1,-1.090976906e1,1.961289643e1
2.519397375e0,1.143277836e1,1.184358120e1,-1.014578629e1,1.933690296e1
2.529430375e0,1.251664352e1,1.094501305e1,-9.350782394e0,1.907607945e1
2.539462375e0,1.341124725e1,1.005733299e1,-8.551918030e0,1.881878853e1
2.549496375e0,1.414042759e1,9.191653252e0,-7.768380165e0,1.856841168e1
2.559529375e0,1.472473526e1,8.350919724e0,-7.012672901e0,1.832302568e1
2.569562375e0,1.517626572e1,7.542268276e0,-6.299602032e0,1.808009507e1
2.579594375e0,1.551393509e1,6.779526234e0,-5.640398502e0,1.784539866e1
2.589627375e0,1.576680565e1,6.075113773e0,-5.032656670e0,1.763028079e1
2.599660375e0,1.596887016e1,5.433941364e0,-4.476729393e0,1.745203825e1
2.609693375e0,1.613361359e1,4.840052128e0,-3.971911669e0,1.730594332e1
2.619726375e0,1.626517677e1,4.291120052e0,-3.518627644e0,1.718576234e1
2.629759375e0,1.638237953e1,3.789781809e0,-3.104541302e0,1.709920998e1
2.639792375e0,1.649817467e1,3.318298340e0,-2.734393835e0,1.704927508e1
2.649825375e0,1.660312271e1,2.873982191e0,-2.405095339e0,1.702080906e1
2.659858375e0,1.669802284e1,2.475827932e0,-2.117468834e0,1.701285881e1
2.669891375e0,1.676918602e1,2.117206573e0,-1.859802604e0,1.700432384e1
2.679924375e0,1.684889603e1,1.767283440e0,-1.637452483e0,1.702027728e1
2.689957375e0,1.691594315e1,1.440377235e0,-1.445778608e0,1.703860601e1
2.699990375e0,1.697645950e1,1.136286855e0,-1.289341927e0,1.706322735e1
2.710023375e0,1.703952408e1,8.626704812e-1,-1.159261703e0,1.710068621e1
2.720056375e0,1.708458900e1,6.139345169e-1,-1.051211715e0,1.712790539e1
2.730089375e0,1.710282707e1,3.948504031e-1,-9.597513080e-1,1.713428502e1
2.740122375e0,1.709122086e1,1.984225065e-1,-8.860203028e-1,1.711532161e1
2.750155375e0,1.704906845e1,1.897178963e-2,-8.383499980e-1,1.706967855e1
2.760188375e0,1.698912430e1,-1.395778507e-1,-8.073650002e-1,1.700887018e1
2.770221375e0,1.683451653e1,-3.920891881e-1,-7.963725328e-1,1.685790289e1
2.780254375e0,-1.178354740e0,-1.201194859e1,1.419554949e-1,1.207044241e1
2.790287375e0,-1.379517269e1,-4.735567607e-3,-1.847422361e0,1.391832538e1
2.800320375e0,-3.510081482e1,-2.046993732e0,-5.686233044e0,3.561727994e1
2.810353375e0,-3.553672028e1,-1.332711506e1,-3.007048845e0,3.807246809e1
2.820386375e0,-1.035040569e1,2.702120841e-1,3.694858849e-1,1.036052279e1
2.830419375e0,1.848944187e0,2.668872118e0,4.055562615e-1,3.271994632e0
2.840452375e0,1.873674273e0,-3.096155167e0,-3.326761127e-1,3.634213188e0
2.850485375e0,2.938753664e-1,-4.590106010e0,-4.200605750e-1,4.618645560e0
2.860518375e0,-1.706109881e0,-4.863308430e0,-2.831798196e-1,5.161663552e0
2.870551375e0,-1.766741157e0,-4.875391960e0,-2.290468067e-1,5.190692008e0
2.880584375e0,-1.734797120e0,-4.887098789e0,-1.737953871e-1,5.188782175e0
2.890617375e0,-1.729377270e0,-4.860097408e0,-1.264521033e-1,5.160163049e0
2.900650375e0,-1.727699876e0,-4.844005585e0,-7.790895551e-2,5.143481970e0
2.910683375e0,-1.721100569e0,-4.822967529e0,-3.592662141e-2,5.120985616e0
2.920716375e0,-1.709543705e0,-4.801474094e0,5.619286560e-3,5.096736675e0
2.930749375e0,-1.701976895e0,-4.782651424e0,4.904425889e-2,5.076700241e0
2.940782375e0,-1.699666023e0,-4.772075653e0,9.018468112e-2,5.066527796e0
2.950815375e0,-1.689347386e0,-4.756034374e0,1.341622472e-1,5.048936231e0
2.960848375e0,-1.681253433e0,-4.745381355e0,1.757818311e-1,5.037475217e0
2.970881375e0,-1.674907088e0,-4.739516258e0,2.162898481e-1,5.031412268e0
2.980914375e0,-1.663076520e0,-4.732864857e0,2.609817684e-1,5.023339999e0
2.990947375e0,-1.649598241e0,-4.729813576e0,3.044514656e-1,5.018466052e0
3.000980375e0,-1.636981487e0,-4.725577831e0,3.449786305e-1,5.012963643e0
3.011013375e0,-1.616089821e0,-4.725466728e0,3.894329071e-1,5.009335295e0
3.021046375e0,-1.602363706e0,-4.727319717e0,4.281389713e-1,5.009832745e0
3.031079208e0,-1.582714081e0,-4.727465630e0,4.693394005e-1,5.007413965e0
3.041112208e0,-1.559591651e0,-4.728162766e0,5.107859373e-1,5.004872778e0
3.051145208e0,-1.539298415e0,-4.729227066e0,5.500686169e-1,5.003758961e0
3.061178208e0,-1.512974262e0,-4.732000828e0,5.871645808e-1,5.002567860e0
3.071211208e0,-1.489900112e0,-4.734202385e0,6.263372302e-1,5.002476676e0
3.081244208e0,-1.462963223e0,-4.737650394e0,6.644087434e-1,5.002702433e0
3.091277208e0,-1.434248209e0,-4.738535881e0,6.991201043e-1,4.999955914e0
3.101310208e0,-1.400748134e0,-4.743692398e0,7.364531159e-1,5.000707559e0
3.111343208e0,-1.368944407e0,-4.747137070e0,7.731842399e-1,5.000713251e0
3.121376208e0,-1.334830284e0,-4.747785568e0,8.056914806e-1,4.997237082e0
3.131409208e0,-1.293688536e0,-4.752749443e0,8.398100138e-1,4.996752761e0
3.141442208e0,-1.261005521e0,-4.751446724e0,8.740199804e-1,4.993024316e0
3.151475208e0,-1.220628262e0,-4.756247044e0,9.030655026e-1,4.992729373e0
3.161508208e0,-1.177991271e0,-4.763702393e0,9.342836738e-1,4.995338818e0
3.171541208e0,-1.138504863e0,-4.776680946e0,9.639747143e-1,5.004210371e0
3.181574208e0,-1.095909238e0,-4.790989399e0,9.904049039e-1,5.013531525e0
3.191607208e0,-1.051147342e0,-4.806664944e0,1.017522573e0,5.024369692e0
3.201640208e0,-1.008671761e0,-4.827202797e0,1.040908813e0,5.040118721e0
3.211673208e0,-9.590685368e-1,-4.850165844e0,1.068121076e0,5.058142327e0
3.221706208e0,-9.141420126e-1,-4.879020214e0,1.090469837e0,5.082284755e0
3.231739208e0,-8.702405691e-1,-4.909619331e0,1.110591292e0,5.108335702e0
3.241772208e0,-8.210788965e-1,-4.945158482e0,1.132091045e0,5.139104309e0
3.251805208e0,-1.138990760e0,-5.681852341e0,9.024668932e-1,5.864741466e0
3.261838208e0,-3.273261070e0,-1.024954987e1,9.457800388e-1,1.080101895e1
3.271871208e0,-5.899399757e0,-1.627834702e1,5.313511491e-1,1.732252387e1
3.281904208e0,-9.355040550e0,-2.520268440e1,-1.382805228e0,2.691847386e1
3.291937208e0,-1.220265388e1,-3.443211365e1,-9.831801057e-1,3.654369789e1
3.301970208e0,-1.357245064e1,-3.303734589e1,6.853143573e-1,3.572320388e1
3.312003208e0,-9.213809013e0,-2.019564867e0,-1.204377890e0,9.509124297e0
3.322036208e0,-8.238472342e-1,1.234726810e1,-3.434442759e0,1.284247449e1
3.332069208e0,3.263347626e0,6.069982052e0,-5.132295132e0,8.592704647e0
3.342102208e0,4.390543938e0,-7.732343674e-1,-5.980438709e0,7.459250271e0
3.352135208e0,3.908577442e0,-2.524003506e0,-5.641173840e0,7.312346655e0
3.362168208e0,3.469637632e0,-3.113369942e0,-4.262696743e0,6.316806251e0
3.372201208e0,3.417924881e0,-3.387956858e0,-2.326593399e0,5.345418506e0
3.382234208e0,3.204153061e0,-3.183768034e0,-1.047246814e0,4.636777073e0
3.392267208e0,2.597412109e0,-2.497418642e0,-3.315342665e-1,3.618503076e0
3.402300208e0,1.527515888e0,-1.336598516e0,4.262236059e-1,2.073997816e0
3.412333208e0,4.006225467e-1,-1.552080661e-1,1.477536559e0,1.538733977e0
3.422366208e0,-5.175029635e-1,6.918973327e-1,2.879393101e0,3.006232836e0
3.432399208e0,-1.636418939e0,1.748800874e0,3.959188700e0,4.627239631e0
3.442432208e0,-2.720396042e0,2.636434793e0,4.523536682e0,5.900315853e0
3.452465208e0,-3.608573198e0,3.217530966e0,4.553616524e0,6.641515602e0
3.462498208e0,-4.441210747e0,3.602491140e0,4.236588478e0,7.116949996e0
3.472531208e0,-4.865737915e0,2.156921387e0,3.411198378e0,6.321707815e0
3.482564208e0,-4.417200565e0,-1.493765831e0,1.349363327e0,4.854253658e0
3.492597208e0,-3.164855719e0,-3.374886990e0,-7.910644412e-1,4.693821137e0
3.502630208e0,-1.359211683e0,-4.087924957e0,-1.349954367e0,4.514528065e0
3.512663208e0,3.721730411e-1,-2.926817656e0,-1.732963324e-1,2.955470518e0
3.522696208e0,6.448568702e-1,-7.857371569e-1,6.048564240e-2,1.018273920e0
3.532729208e0,5.551820993e-1,1.629943252e-1,-6.576018035e-2,5.823390033e-1
3.542761208e0,7.154119611e-1,4.623873830e-1,1.196353287e-1,8.601912449e-1
3.552794208e0,8.572849035e-1,9.220955968e-1,2.546823621e-1,1.284546924e0
3.562827208e0,9.860531092e-1,1.213630795e0,4.192481041e-1,1.618940831e0
3.572860208e0,1.075645804e0,1.448704362e0,4.302118123e-1,1.854950250e0
3.582893208e0,1.039517164e0,1.648156762e0,1.609754562e-1,1.955231379e0
3.592926208e0,7.878375053e-1,1.538459897e0,-8.343401551e-2,1.730464685e0
3.602959208e0,2.394367158e-1,1.110016108e0,-8.887086064e-2,1.139018757e0
3.612992208e0,-5.076726675e-1,6.576834917e-1,1.231647655e-2,8.309216619e-1
3.623025208e0,-9.525622725e-1,1.309613287e-1,1.015944555e-1,9.668749589e-1
3.633058208e0,-8.469735384e-1,-2.219370753e-1,7.747127861e-2,8.789892145e-1
3.643091208e0,-4.656117260e-1,-3.563872874e-1,-5.952224880e-2,5.893632803e-1
3.653124208e0,-1.252221912e-1,-5.391744375e-1,-1.306938976e-1,5.687447284e-1
3.663157208e0,-3.179866448e-2,-7.783597112e-1,-9.793979675e-2,7.851415152e-1
3.673190208e0,-1.339050531e-1,-9.322044253e-1,-2.848189138e-2,9.422032010e-1
3.683223208e0,-2.058172226e-1,-9.321375489e-1,1.614303142e-2,9.547260008e-1
3.693256208e0,-1.519710422e-1,-7.768440843e-1,-2.393901115e-3,7.915729023e-1
3.703289208e0,-6.059023552e-3,-4.871095121e-1,-2.951787226e-2,4.880406677e-1
3.713322208e0,1.501058042e-1,-8.758076280e-2,-6.970219314e-3,1.739273596e-1
3.723355208e0,2.392656952e-1,2.781915069e-1,2.535858750e-2,3.678065325e-1
3.733388208e0,2.197710872e-1,5.017439127e-1,2.317106724e-2,5.482546699e-1
3.743421208e0,1.283673793e-1,5.637817979e-1,2.821149491e-2,5.788989447e-1
3.753454208e0,2.788337320e-2,5.378295779e-1,4.271586984e-2,5.402432627e-1
3.763487208e0,-2.087721974e-2,5.048664808e-1,2.570422180e-2,5.059513107e-1
3.773520208e0,-3.931260202e-3,4.609552026e-1,-1.874313690e-2,4.613528571e-1
3.783553208e0,3.666580468e-2,3.521550596e-1,-5.042768270e-2,3.576318196e-1
3.793586208e0,3.761522099e-2,1.550167054e-1,-3.958036005e-2,1.643523310e-1
3.803619208e0,-1.525520533e-2,-7.842896879e-2,-4.784920253e-3,8.004198833e-2
3.813652208e0,-7.819155604e-2,-2.683067918e-1,3.298110142e-2,2.814075461e-1
3.823685208e0,-9.895430505e-2,-3.920220733e-1,5.374843627e-2,4.078751706e-1
3.833718208e0,-6.778147072e-2,-4.410261214e-1,4.099509120e-2,4.480836585e-1
3.843751208e0,-1.554790698e-2,-4.239383340e-1,6.505192723e-3,4.242732209e-1
3.853784208e0,1.864708029e-2,-3.438890278e-1,-2.780990303e-2,3.455152208e-1
3.863817208e0,1.762594283e-2,-2.148140967e-1,-4.107809439e-2,2.194155415e-1
3.873850208e0,2.984948922e-3,-7.325615734e-2,-3.667775542e-2,8.197946237e-2
3.883883208e0,-1.747286133e-2,5.983082950e-2,-2.186661959e-2,6.605435712e-2
3.893916208e0,-2.153471485e-2,1.879373938e-1,-2.938735532e-3,1.891899683e-1
3.903949208e0,-1.028972305e-2,2.897540927e-1,1.384020783e-2,2.902668841e-1
3.913982208e0,1.535412110e-2,3.438940346e-1,1.465939637e-2,3.445486235e-1
3.924015208e0,3.658401966e-2,3.383334279e-1,1.180439256e-2,3.405102680e-1
3.934048208e0,4.245122895e-2,2.652858496e-1,9.235507809e-3,2.688196113e-1
3.944081208e0,4.704361036e-2,1.499404460e-1,1.299336925e-2,1.576834369e-1
3.954114208e0,4.548992217e-2,1.699065790e-2,1.123887859e-2,4.984303228e-2
3.964147208e0,3.722580150e-2,-1.096791029e-1,3.707449185e-3,1.158836101e-1
3.974180208e0,1.681959815e-2,-2.110813707e-1,-7.987290621e-3,2.119010164e-1
3.984213208e0,-1.902955957e-2,-2.700213194e-1,-1.079671644e-2,2.709062682e-1
3.994246208e0,-5.953171104e-2,-2.771545947e-1,-1.134346332e-2,2.837029575e-1
4.004279208e0,-8.080408722e-2,-2.374096960e-1,-6.830355152e-3,2.508770974e-1
4.014312208e0,-7.902775705e-2,-1.592557579e-1,-8.053811267e-3,1.779681058e-1
4.024345208e0,-5.441576615e-2,-6.132513285e-2,-5.447451025e-3,8.216764720e-2
4.034378250e0,-1.836109161e-2,4.697231203e-2,-3.987506032e-3,5.059078955e-2
4.044411250e0,1.426964253e-2,1.390608400e-1,4.054818302e-3,1.398498533e-1
4.054444250e0,3.456772491e-2,1.951667219e-1,9.644793347e-3,1.984389049e-1
4.064477250e0,4.738983884e-2,2.006648630e-1,1.424536854e-2,2.066763523e-1
4.074510250e0,5.550742149e-2,1.769147962e-1,1.096328907e-2,1.857420595e-1
4.084543250e0,5.466690660e-2,1.319918782e-1,7.025711238e-3,1.430373629e-1
4.094576250e0,4.093990847e-2,7.192375511e-2,4.069572315e-4,8.276030612e-2
4.104609250e0,2.471830882e-2,6.403892301e-3,-5.951917730e-3,2.621888541e-2
4.114642250e0,-4.765812773e-3,-6.392699480e-2,-1.056531165e-2,6.496921922e-2
4.124675250e0,-2.780949138e-2,-1.248017102e-1,-8.372267708e-3,1.281363709e-1
4.134708250e0,-4.431682825e-2,-1.567644328e-1,-9.107833728e-3,1.631625609e-1
4.144741250e0,-4.900323227e-2,-1.569304913e-1,-3.505479777e-3,1.644408230e-1
4.154774250e0,-4.476374760e-2,-1.324187666e-1,3.928556107e-4,1.397808184e-1
4.164807250e0,-3.714475408e-2,-8.531744033e-2,1.706057228e-4,9.305282095e-2
4.174839250e0,-1.990717649e-2,-2.950690500e-2,7.873937720e-4,3.560299296e-2
4.184872250e0,1.264403109e-3,2.962948568e-2,1.991318073e-3,2.972323140e-2
4.194905250e0,2.300778218e-2,8.227618784e-2,3.602264216e-3,8.550851088e-2
4.204938250e0,3.872003779e-2,1.125080287e-1,6.678810343e-3,1.191717432e-1
4.214971250e0,4.209799320e-2,1.241700128e-1,7.675631903e-3,1.313367748e-1
4.225004250e0,3.969288617e-2,1.079088971e-1,7.690189406e-3,1.152345187e-1
4.235037250e0,2.536108904e-2,7.849375159e-2,4.004107788e-3,8.258623829e-2
4.245070250e0,8.217629977e-3,3.269461915e-2,-1.321115997e-4,3.371179344e-2
4.255103250e0,-9.084927849e-3,-1.506251749e-2,-2.753194654e-3,1.780436542e-2
4.265136250e0,-2.290439978e-2,-5.544160306e-2,-4.041377921e-3,6.012250506e-2
4.275169250e0,-2.943953127e-2,-8.277868479e-2,-5.629420746e-3,8.803798632e-2
4.285202250e0,-2.979519032e-2,-9.445027262e-2,-6.820634007e-3,9.927299941e-2
4.295235250e0,-2.432079613e-2,-8.887361735e-2,-2.826424781e-3,9.218464982e-2
4.305268250e0,-1.413225848e-2,-7.109920681e-2,1.144671696e-3,7.249916007e-2
4.315301250e0,-4.122235347e-3,-4.122945294e-2,1.228028676e-3,4.145321059e-2
4.325334250e0,4.686565138e-3,-2.120187273e-3,1.153487596e-3,5.271586147e-3
4.335367250e0,1.537329797e-2,3.310304508e-2,2.538717818e-4,3.649951143e-2
4.345400250e0,2.110814676e-2,5.656716600e-2,-3.381953575e-4,6.037807967e-2
4.355433250e0,2.116034552e-2,7.037379593e-2,-3.682889510e-4,7.348718945e-2
4.365466250e0,1.643835753e-2,6.763283908e-2,2.507306635e-5,6.960187605e-2
4.375499250e0,7.843537256e-3,5.699004978e-2,3.039059229e-4,5.752807323e-2
4.385532250e0,3.434275044e-3,3.158540279e-2,-3.156106453e-3,3.192793326e-2
4.395565250e0,-3.605525009e-3,5.813726224e-3,-4.238947760e-3,8.047850726e-3
4.405598250e0,-1.129279658e-2,-2.000272647e-2,1.278768759e-4,2.297069161e-2
4.415631250e0,-1.198894717e-2,-4.219111800e-2,3.779476974e-4,4.386306119e-2
4.425664250e0,-1.188698411e-2,-5.435950309e-2,1.488085487e-3,5.566390541e-2
4.435697250e0,-1.028695703e-2,-5.719976500e-2,-6.416444667e-4,5.812096273e-2
4.445730250e0,-3.844967112e-3,-4.874663055e-2,2.927521477e-3,4.898559119e-2
4.455763250e0,-3.012729343e-3,-3.566971049e-2,9.839464910e-4,3.581023506e-2
4.465796250e0,-6.687445566e-4,-1.432770677e-2,2.223952441e-3,1.451469480e-2
4.475829250e0,2.780092182e-4,6.036686711e-3,-2.739380812e-3,6.634989285e-3
4.485862250e0,6.771586835e-3,2.630074136e-2,-9.689657018e-4,2.717576639e-2
4.495895250e0,9.290404618e-3,4.197424278e-2,-2.745027887e-3,4.307764911e-2
4.505928250e0,5.875256844e-3,4.603943974e-2,-4.790979438e-4,4.641527970e-2
4.515961250e0,6.167138927e-3,3.833145276e-2,7.169276942e-4,3.883101670e-2
4.525994250e0,2.167456085e-3,2.699658647e-2,-2.336278558e-4,2.708446287e-2
4.536027250e0,-1.686687756e-4,1.039683819e-2,-6.956863217e-4,1.042145253e-2
4.546060250e0,-2.905541565e-3,-5.098194815e-3,3.841863945e-4,5.880591921e-3
4.556093250e0,-1.047454076e-3,-1.963798888e-2,1.140790526e-3,1.969896369e-2
4.566126250e0,-2.279957058e-3,-2.916178107e-2,2.876156941e-6,2.925077243e-2
4.576159250e0,-5.164693110e-3,-3.477465734e-2,7.717307890e-4,3.516456194e-2
4.586192250e0,-8.546683937e-3,-3.735373542e-2,-3.174195532e-3,3.845026493e-2
4.596225250e0,-5.540508777e-3,-3.204659000e-2,-1.213043695e-3,3.254462541e-2
4.606258250e0,-5.213756580e-3,-1.645215414e-2,6.135734729e-4,1.726942692e-2
4.616291250e0,-1.916763140e-3,-1.485455548e-3,8.338168263e-4,2.564334148e-3
4.626324250e0,-7.922662771e-4,1.586437970e-2,-1.042773947e-4,1.588449253e-2
4.636357250e0,3.659473732e-3,2.410526574e-2,-7.429034449e-4,2.439277536e-2
4.646390250e0,4.377802368e-3,2.716834843e-2,-4.071509466e-6,2.751879951e-2
4.656423250e0,3.616937436e-3,2.361329459e-2,1.408735407e-3,2.393019960e-2
4.666456250e0,4.485263024e-3,1.905135065e-2,-2.146349056e-3,1.968954952e-2
4.676489250e0,1.091330545e-3,1.383022219e-2,-7.840455510e-5,1.387343488e-2
4.686521250e0,1.402596245e-3,4.470772110e-3,1.227116096e-3,4.843644640e-3
4.696554250e0,1.747475588e-3,-1.002374850e-2,6.444163155e-4,1.019531644e-2
4.706587250e0,-2.484264784e-3,-1.943226159e-2,1.107901102e-3,1.962171773e-2
4.716620250e0,-3.283213126e-3,-2.665209025e-2,9.731452446e-4,2.687118187e-2
4.726653250e0,-4.334340803e-3,-2.511927113e-2,-2.377000637e-4,2.549158280e-2
4.736686250e0,-4.992674571e-3,-2.401619032e-2,-3.278497607e-3,2.474778260e-2
4.746719250e0,-1.837812015e-3,-1.729629189e-2,-3.687501885e-3,1.778024005e-2
4.756752250e0,-1.439136802e-3,-6.071866490e-3,-1.697854139e-3,6.466945653e-3
4.766785250e0,-2.564714756e-3,4.888089374e-3,1.243010629e-4,5.521469936e-3
4.776818250e0,-2.882446861e-4,1.606005058e-2,4.698280245e-3,1.673565496e-2
4.786851250e0,2.479636343e-3,1.975202747e-2,1.591131091e-3,1.997055041e-2
4.796884250e0,2.368316287e-3,2.112888172e-2,-6.318094674e-4,2.127058410e-2
4.806917250e0,1.313680899e-3,1.691851765e-2,-1.354925334e-4,1.696998395e-2
4.816950250e0,7.291169604e-4,1.082866639e-2,3.068870865e-5,1.085322851e-2
4.826983250e0,1.113318140e-3,-1.107032876e-4,-2.708747052e-4,1.151132314e-3
4.837016250e0,-8.156094118e-4,-7.227201946e-3,1.301988261e-3,7.388696780e-3
4.847049250e0,-1.790846931e-3,-1.281694975e-2,3.600651398e-4,1.294646594e-2
4.857082250e0,-5.223661661e-3,-1.846817695e-2,1.675666659e-3,1.926572240e-2
4.867115250e0,-4.402205348e-3,-2.026157454e-2,1.533530420e-3,2.079092423e-2
4.877148250e0,-5.815278739e-3,-1.768629812e-2,-2.057209611e-3,1.873111634e-2
4.887181250e0,-5.278144497e-3,-8.483121172e-3,-1.500694547e-3,1.010317961e-2
4.897214250e0,2.112926450e-3,-9.474402759e-4,9.904261678e-4,2.518540302e-3
4.907247250e0,-5.244329222e-4,7.395053282e-3,-1.130363671e-3,7.499304299e-3
4.917280250e0,1.820746809e-3,9.063789621e-3,-6.339505780e-4,9.266568651e-3
4.927313250e0,1.719923923e-3,1.183247846e-2,2.005170565e-3,1.212379453e-2
4.937346250e0,1.509800553e-3,1.046867296e-2,-1.297948183e-3,1.065632586e-2
4.947379250e0,1.796130091e-3,1.042965148e-2,-6.769844331e-4,1.060481123e-2
4.957412250e0,6.847930490e-4,5.022635683e-3,-2.631478244e-3,5.711434888e-3
4.967445250e0,-4.874150036e-4,-1.496821642e-4,1.125918934e-3,1.235990122e-3
4.977478250e0,-3.473351244e-3,-6.258707494e-3,2.707778476e-4,7.163023733e-3
4.987511250e0,-2.753266599e-3,-7.208521478e-3,8.084112778e-6,7.716432091e-3
4.997544250e0,-3.024909180e-3,-9.284455329e-3,-5.822861567e-5,9.764966814e-3
5.007577250e0,-5.628149025e-3,-8.604549803e-3,1.682430040e-3,1.041848883e-2
5.017610250e0,1.634274086e-4,-9.748910554e-3,7.644385332e-4,9.780201009e-3
5.027643250e0,-1.484802924e-3,-6.758446805e-3,-1.504555112e-3,7.081308426e-3
5.037676250e0,-6.118187448e-4,-2.169243526e-4,6.305009592e-4,9.049363573e-4
5.047709250e0,-4.816572473e-4,3.571648849e-3,-9.540508036e-4,3.728120457e-3
5.057742250e0,-1.632941887e-3,7.020175457e-3,-1.116503496e-3,7.293554875e-3
5.067775250e0,2.333856886e-3,9.352001362e-3,-1.892459346e-3,9.822841738e-3
5.077808250e0,2.078193473e-3,6.811612286e-3,1.781482715e-4,7.123811259e-3
5.087841250e0,2.149517182e-3,5.368363112e-3,2.441092627e-3,6.276836770e-3
5.097874250e0,3.391349223e-3,1.161900349e-3,-2.072965493e-3,4.141068450e-3
5.107907250e0,8.837971836e-4,-4.070264986e-4,6.511977408e-4,1.170823014e-3
5.117939250e0,4.552946193e-4,-2.690687077e-3,-4.098056816e-4,2.759534532e-3
5.127972250e0,-2.084507607e-3,-6.087517831e-3,6.830561906e-4,6.470673154e-3
5.138005250e0,-3.803311847e-3,-6.490720436e-3,-1.736825798e-4,7.524945078e-3
5.148038250e0,-5.018724594e-3,-7.211609278e-3,-1.528268214e-3,8.917987927e-3
5.158071250e0,-2.107889857e-3,-8.706973866e-3,8.321064524e-5,8.958879258e-3
5.168104250e0,-2.961148857e-4,-4.599136300e-3,3.178836778e-4,4.619609157e-3
5.178137250e0,-1.557387994e-3,-1.547686290e-3,8.145633619e-4,2.341859023e-3
5.188170250e0,2.522650873e-3,-4.310279619e-4,3.422829323e-4,2.581997316e-3
5.198203250e0,-1.594186469e-4,2.907510847e-3,-1.185039757e-3,3.143780026e-3
5.208236250e0,-7.691303617e-4,3.294662572e-3,1.696985913e-3,3.784986680e-3
5.218269250e0,1.955816057e-3,5.492835771e-3,3.324177349e-3,6.711677607e-3
5.228302250e0,-6.926886854e-4,6.775103044e-3,2.467941958e-4,6.814891506e-3
5.238335250e0,-1.361408504e-3,2.694607712e-3,7.080537034e-4,3.100916620e-3
5.248368250e0,1.305691316e-3,-1.012546360e-3,4.061749205e-4,1.701486999e-3
5.258401250e0,-1.288760104e-3,-3.607796971e-3,1.232819981e-3,4.024543042e-3
5.268434250e0,2.191248350e-3,-4.144123755e-3,1.986022107e-3,5.091130998e-3
5.278467250e0,-5.640580202e-4,-7.177197840e-3,-1.234272262e-3,7.304365702e-3
5.288500250e0,1.119647408e-3,-2.721430734e-3,-8.027281146e-4,3.050273428e-3
5.298533250e0,-2.896932187e-3,-4.570996389e-3,7.751949597e-4,5.466914240e-3
5.308566250e0,-1.310300897e-3,-2.177554416e-3,-9.570599068e-4,2.715620617e-3
5.318599250e0,-8.740751073e-4,-1.700315857e-3,2.279746113e-3,2.975285474e-3
5.328632250e0,-7.502381341e-4,7.354111876e-4,1.067291014e-4,1.055972525e-3
5.338665250e0,5.302097416e-4,3.126929747e-3,6.942223990e-4,3.246653162e-3
5.348698250e0,2.890383126e-3,6.946059875e-4,1.056212583e-3,3.154738834e-3
5.358731250e0,2.388909925e-3,2.922073938e-3,-2.464752644e-3,4.507816803e-3
5.368764250e0,4.362388863e-4,2.442089375e-3,-1.557467040e-4,2.485631090e-3
5.378797250e0,-1.061522868e-3,2.600547392e-3,-7.650777698e-4,2.911189023e-3
5.388830250e0,-5.714902654e-4,1.287035411e-3,-1.931965351e-3,2.390721939e-3
5.398863250e0,-2.898826730e-3,2.465385478e-4,-1.354325563e-3,3.209077031e-3
5.408896250e0,-1.605143654e-3,-5.732200108e-3,-8.820176590e-4,6.017687212e-3
5.418929250e0,1.364014577e-3,-2.739073709e-3,1.489793533e-3,3.403313873e-3
5.428962250e0,1.288758125e-3,-5.885532126e-3,5.987116601e-4,6.054654537e-3
5.438995250e0,-4.521917435e-5,-2.898797393e-3,-1.668969868e-3,3.345225182e-3
5.449028250e0,-2.419643337e-3,-3.224417567e-3,1.894430141e-3,4.454257299e-3
5.459061250e0,-1.115493476e-3,-4.952101735e-4,-6.590087432e-4,1.387029681e-3
5.469094250e0,4.451746354e-4,7.473933510e-5,6.448338972e-4,7.871322502e-4
5.479127250e0,1.169820782e-3,1.155982725e-3,-1.004195539e-3,1.926962741e-3
5.489160250e0,3.685250413e-4,2.388194203e-3,1.032549422e-3,2.627820498e-3
5.499193250e0,1.842343190e-4,4.153337330e-3,1.531359507e-3,4.430487016e-3
5.509226250e0,1.865572529e-3,2.561097499e-3,6.045599002e-4,3.225689683e-3
5.519258250e0,-6.862684386e-4,2.140537836e-4,-6.428647321e-4,9.643953835e-4
5.529291250e0,8.193319081e-5,1.719148364e-3,9.054656839e-4,1.944749920e-3
5.539324250e0,-1.580176177e-4,-6.595872110e-4,1.302542980e-3,1.468551351e-3
5.549357250e0,-2.872868907e-3,-2.846341114e-3,3.341760021e-4,4.057919060e-3
5.559390250e0,-2.802815870e-4,-4.194166977e-3,-4.815501161e-4,4.231014643e-3
5.569423250e0,-2.073124517e-3,-2.212186344e-3,-2.214882756e-3,3.754639704e-3
5.579456250e0,1.607349841e-4,-2.329365350e-3,1.604090212e-3,2.832822634e-3
5.589489250e0,6.720926613e-4,-2.254046034e-3,7.480443455e-4,2.468198212e-3
5.599522250e0,-2.522102790e-3,5.819541402e-4,-1.508451998e-3,2.995847215e-3
5.609555250e0,-1.609696308e-3,3.170876298e-4,9.036849951e-4,1.873049209e-3
5.619588250e0,1.054530032e-3,7.543787360e-4,7.411045954e-5,1.298696741e-3
5.629621250e0,-3.862369340e-5,5.761540961e-4,-1.523940358e-3,1.629674675e-3
5.639654250e0,-7.877708995e-4,1.511988929e-3,1.376913860e-5,1.704958386e-3
5.649687250e0,1.938419649e-3,1.165363705e-3,-4.149889573e-4,2.299512804e-3
5.659720250e0,-2.498998365e-4,-1.258112723e-3,9.456200060e-4,1.593579225e-3
5.669753250e0,1.648258767e-3,-1.240930054e-3,8.767364779e-4,2.241725053e-3
5.679786250e0,-1.678828383e-3,1.910515130e-4,1.856247196e-3,2.510103399e-3
5.689819250e0,-4.538590438e-4,7.048705593e-4,-1.306387130e-3,1.552249294e-3
5.699852250e0,-5.063233548e-4,-2.150304383e-3,7.090931758e-4,2.320126162e-3
5.709885250e0,-1.450947952e-3,-1.962488750e-3,1.218953636e-3,2.728087245e-3
5.719918250e0,-3.483992768e-4,-3.511915915e-3,-1.456724247e-3,3.817981270e-3
5.729951250e0,-5.438829539e-4,-1.203297870e-3,-6.556843873e-4,1.474332543e-3
5.739984250e0,-1.798764570e-3,9.552575648e-5,9.230374126e-4,2.024025003e-3
5.750017250e0,-1.059300848e-5,9.957205039e-4,-9.940727614e-4,1.407036669e-3
5.760050250e0,-1.215407159e-3,2.488422208e-3,5.806544796e-4,2.829597016e-3
5.770083250e0,-2.496753877e-4,1.527610701e-3,3.056866117e-4,1.577775826e-3
5.780116250e0,9.751124308e-4,8.269329555e-4,5.728015676e-4,1.400986796e-3
5.790149250e0,3.768654424e-4,9.873509407e-5,1.877049217e-3,1.917052410e-3
5.800182250e0,-1.163519773e-4,-2.815828193e-3,1.712199533e-3,3.297582969e-3
5.810215250e0,1.460072584e-3,-9.047816275e-4,-9.083033074e-4,1.943053433e-3
5.820248250e0,1.086431090e-3,-2.473117318e-3,9.942590259e-4,2.878401083e-3
5.830281250e0,-6.341832923e-4,-1.424387097e-3,-1.510686707e-3,2.171000087e-3
5.840314250e0,-2.020624932e-3,-4.273909144e-5,-1.359685324e-3,2.435876829e-3
5.850346250e0,-1.206400106e-3,-1.159753185e-3,-8.913844358e-4,1.896047172e-3
5.860379250e0,9.534235578e-4,-3.283091355e-3,-7.678137626e-4,3.503889739e-3
5.870412250e0,-2.108193003e-3,-1.904821256e-3,-2.870575991e-4,2.855735250e-3
5.880445250e0,2.189616440e-3,-2.778960625e-4,-1.030079555e-3,2.435715555e-3
5.890478250e0,2.194339875e-3,1.005929895e-3,1.130199991e-3,2.665403245e-3
5.900511250e0,5.993726663e-4,8.597222622e-4,-8.892749902e-4,1.374474434e-3
5.910544250e0,-2.056578523e-5,3.521791194e-3,2.987140324e-4,3.534496603e-3
5.920577250e0,2.280139131e-3,1.250381116e-3,5.232184194e-4,2.652592111e-3
5.930610250e0,-1.221493119e-3,2.066626912e-3,-2.547383308e-3,3.500307694e-3
5.940643250e0,-2.203933196e-3,-6.203760859e-5,5.871570902e-4,2.281649326e-3
5.950676250e0,-4.957098863e-4,-1.418419881e-3,-6.629398558e-4,1.642294889e-3
5.960709250e0,-2.889891621e-3,-1.115085906e-3,2.655247226e-5,3.097675773e-3
5.970742250e0,-6.470148219e-4,-2.260702197e-3,-1.185321948e-3,2.633323133e-3
5.980775250e0,2.712562913e-3,-8.463335689e-5,-1.133994665e-4,2.716251056e-3
5.990808250e0,-5.640519084e-4,-1.158225816e-3,-9.814614896e-4,1.619539518e-3
6.000841250e0,2.064754488e-3,-4.711303627e-4,-7.479023188e-4,2.246003738e-3
6.010874250e0,-1.629283419e-3,-9.390498744e-4,1.919354079e-3,2.687061445e-3
6.020907250e0,-2.973913215e-3,-1.227736473e-3,-1.410068944e-5,3.217405086e-3
6.030940208e0,-2.168421168e-3,4.418727476e-4,1.312213950e-3,2.572782023e-3
6.040973208e0,-9.084796766e-4,2.815504558e-4,-5.820924416e-4,1.115095329e-3
6.051006208e0,1.147061819e-3,-1.379099442e-3,-1.031433698e-3,2.069183791e-3
6.061039208e0,-3.552272974e-4,-1.084021060e-3,-6.364099681e-5,1.142514012e-3
6.071072208e0,-1.626092242e-3,-1.933929743e-4,-7.397728041e-4,1.796897500e-3
6.081105208e0,1.300455537e-3,1.690633362e-4,-5.805632100e-6,1.311411728e-3
6.091138208e0,-3.121000773e-4,1.346475910e-4,-3.469190560e-4,4.856843249e-4
6.101171208e0,-7.700757124e-6,-3.471182426e-4,2.347154077e-4,4.190962880e-4
6.111204208e0,9.664421668e-4,9.071966633e-4,1.059706206e-3,1.697054357e-3
6.121237208e0,-1.231464557e-3,-8.654032135e-4,7.105658296e-4,1.664431277e-3
6.131270208e0,-5.800527288e-4,3.315790091e-4,-2.710267436e-4,7.210140797e-4
6.141303208e0,-3.764394438e-3,2.855062485e-4,-2.858021297e-3,4.735025347e-3
6.151336208e0,-1.762129978e-4,-2.183203585e-3,3.119276371e-4,2.212403166e-3
6.161369208e0,-7.437326130e-4,6.788955070e-4,-1.913942397e-3,2.162686479e-3
6.171401208e0,1.931082690e-3,1.058680937e-6,-3.918635193e-4,1.970441193e-3
6.181434208e0,-1.332887681e-3,-1.345968107e-3,-4.350065719e-4,1.943566421e-3
6.191467208e0,-9.374712827e-4,1.635248540e-3,-2.216599649e-3,2.909674242e-3
6.201500208e0,2.097200835e-3,1.690109726e-3,-1.720718807e-3,3.196184513e-3
6.211533208e0,6.261276430e-4,2.629309427e-3,-1.904384466e-3,3.306355105e-3
6.221566208e0,-2.641671163e-4,6.649615243e-4,6.660986692e-4,9.775712410e-4
6.231599208e0,-1.135898056e-3,7.401925977e-4,9.443032322e-4,1.652228213e-3
6.241632208e0,-1.070916886e-3,2.552310470e-4,2.811711747e-3,3.019557718e-3
6.251665208e0,-1.369558158e-4,6.835791282e-5,-1.131445169e-4,1.903454267e-4
6.261698208e0,-1.075986424e-3,-5.151407095e-4,-9.636650793e-5,1.196830497e-3
6.271731208e0,7.475953316e-4,-4.206786398e-3,9.015202522e-6,4.272707789e-3
6.281764208e0,-2.894395438e-4,1.806998625e-6,1.848726883e-3,1.871248140e-3
6.291797208e0,-2.712875605e-3,-5.982121220e-4,-2.926785965e-4,2.793423088e-3
6.301830208e0,1.592656830e-3,4.856943851e-4,-1.388835721e-3,2.168252632e-3
6.311863208e0,9.300265810e-5,-8.952525677e-4,1.481233630e-4,9.121771676e-4
6.321896208e0,-1.615148853e-3,-2.534960862e-3,-2.397592412e-3,3.844890345e-3
6.331929208e0,-2.583338646e-3,-5.514887162e-3,-3.137806430e-2,3.196358144e-2
6.341962208e0,8.531098254e-3,-3.549755365e-2,-9.996644408e-2,1.064243670e-1
6.351995208e0,3.308450803e-2,-6.030046567e-2,-1.439959258e-1,1.595793141e-1
6.362028208e0,2.004993334e-2,-2.227665484e-2,-1.042389274e-1,1.084619895e-1
6.372061208e0,2.020509169e-2,1.462220252e-1,3.514888510e-2,1.517384938e-1
6.382094208e0,1.381397098e-1,2.352195382e-1,2.456187606e-1,3.670686395e-1
6.392127208e0,2.213745564e-1,3.210252225e-1,2.371049225e-1,4.563799207e-1
6.402160208e0,1.399524063e-1,2.173153460e-1,3.541573882e-2,2.608963591e-1
6.412193208e0,-6.298053265e-2,-1.435153466e-2,-7.589447498e-2,9.966185515e-2
6.422226208e0,-2.239728868e-1,-3.550475836e-1,-7.927695662e-2,4.272089377e-1
6.432259208e0,-2.220452577e-1,-4.855971038e-1,-8.339358866e-2,5.404286580e-1
6.442292208e0,-1.131019965e-1,-3.034608662e-1,-5.364394560e-2,3.282654899e-1
6.452325208e0,-4.085706547e-2,6.787744910e-2,-9.212199599e-3,7.975909049e-2
6.462358208e0,-1.487952564e-2,1.782454997e-1,-2.746314276e-4,1.788656867e-1
6.472390208e0,-1.885547489e-2,-7.927292958e-3,5.119737238e-3,2.108512785e-2
6.482423208e0,-1.328680571e-2,-1.588499695e-1,3.562038764e-2,1.633360463e-1
6.492456208e0,1.211908925e-2,-4.266472906e-2,4.375980422e-2,6.230627493e-2
6.502489208e0,7.852260768e-2,1.570790112e-1,1.192038320e-2,1.760162243e-1
6.512522208e0,1.408164650e-1,2.235361934e-1,-3.519530594e-2,2.665265768e-1
6.522555208e0,1.250398904e-1,1.712868363e-1,-3.706617653e-2,2.152859863e-1
6.532588208e0,3.462656215e-2,6.842182577e-2,3.156274091e-3,7.674963918e-2
6.542621208e0,-7.035232335e-2,-1.210789755e-2,-1.544856839e-2,7.303909124e-2
6.552654208e0,-1.023511887e-1,-4.111570865e-2,-6.806537509e-2,1.296115836e-1
6.562687208e0,-6.127139553e-2,2.652809490e-3,-8.589497209e-2,1.055422548e-1
6.572720208e0,-5.877438560e-2,1.099456251e-1,-1.596931964e-1,2.025941407e-1
6.582753208e0,-1.004786137e-2,8.931393735e-3,-1.974698603e-1,1.979269437e-1
6.592786208e0,1.822027266e-1,-1.760604978e-1,4.988474771e-2,2.582317186e-1
6.602819208e0,3.938875496e-1,-2.506375313e-1,4.495027363e-1,6.480889475e-1
6.612852208e0,1.944078058e-1,-8.545342833e-2,3.728434145e-1,4.290791246e-1
6.622885208e0,-2.588390410e-1,8.725868911e-2,-1.001411825e-1,2.909295179e-1
6.632918208e0,-4.598973095e-1,2.015448734e-2,-2.471868247e-1,5.225065215e-1
6.642951208e0,-3.517644703e-1,3.615609184e-2,-1.851316169e-2,3.541020230e-1
6.652984208e0,-7.266322523e-2,-2.698432468e-2,1.747828573e-1,1.911992293e-1
6.663017208e0,1.023610532e-1,-7.936789840e-2,9.506808594e-3,1.298746624e-1
6.673050208e0,6.827964634e-2,2.821005322e-2,-2.044249475e-1,2.173648462e-1
6.683083208e0,-1.721874066e-2,9.350703657e-2,-2.649694979e-1,2.815117862e-1
6.693116208e0,3.133816645e-2,-5.956449360e-2,-1.311719120e-1,1.474316115e-1
6.703149208e0,8.125033230e-2,-1.748290360e-1,9.122680873e-2,2.132818299e-1
6.713182208e0,4.445768520e-2,-1.956390440e-1,1.506496668e-1,2.508912980e-1
6.723215208e0,1.459275782e-1,-4.939506650e-1,1.647303253e-1,5.407570597e-1
6.733247208e0,2.374830991e-1,-5.845836401e-1,2.275008708e-1,6.707405615e-1
6.743280208e0,8.697082847e-2,-4.682507738e-2,5.631926656e-2,1.137030020e-1
6.753313208e0,-4.948557913e-2,3.068822026e-1,-4.489693418e-2,3.140720356e-1
6.763346208e0,-6.586268544e-2,2.195593342e-2,5.955144390e-2,9.146764902e-2
6.773379208e0,-5.658370256e-2,-2.672098279e-1,4.364385083e-2,2.766000601e-1
6.783412208e0,1.236607227e-2,-2.415878177e-1,3.201435879e-2,2.440133450e-1
6.793445208e0,7.884619385e-2,5.916843563e-2,3.769349679e-2,1.055387406e-1
6.803478208e0,1.905828416e-1,1.562513113e-1,-2.842560038e-2,2.480812499e-1
6.813511208e0,9.948222339e-2,3.260445893e-1,-2.543818653e-1,4.253374194e-1
6.823544208e0,-2.814784348e-1,7.857877016e-1,-2.608778477e-1,8.744996699e-1
6.833577208e0,-8.345792294e-1,1.295010805e0,-9.450256079e-2,1.543536915e0
6.843610208e0,-8.871306181e-1,1.189922690e0,-3.699773178e-2,1.484683662e0
6.853643208e0,-8.317553997e-1,1.594792962e0,-1.321256310e-1,1.803507366e0
6.863676208e0,-4.399849772e-1,1.440114975e0,-1.696410477e-1,1.515353426e0
6.873709208e0,2.740401402e-2,1.795815527e-1,-4.571160302e-2,1.873234228e-1
6.883742208e0,1.986937523e-1,-4.829742014e-2,1.686289161e-1,2.650425614e-1
6.893775208e0,5.078922510e-1,9.246147275e-1,6.105559468e-1,1.218870583e0
6.903808208e0,6.174190044e-1,1.199853778e0,5.644060373e-1,1.462672038e0
6.913841208e0,3.888264894e-1,3.957342803e-1,6.754097342e-2,5.588858941e-1
6.923874208e0,5.489727259e-1,1.036955118e-1,-1.057138965e-1,5.685940914e-1
6.933907208e0,8.073449135e-1,-1.615980268e-1,-3.706661165e-1,9.029468985e-1
6.943940208e0,9.952335954e-1,-6.181120276e-1,-7.122370005e-1,1.371070360e0
6.953973208e0,1.329516053e0,-1.242740393e0,-7.552770376e-1,1.970395905e0
6.964006208e0,1.857414722e0,-1.657574296e0,-4.169573188e-1,2.524162317e0
6.974039208e0,2.169391870e0,-1.466487288e0,3.241335601e-2,2.618758614e0
6.984072208e0,2.228486061e0,-1.171166897e0,4.095321596e-1,2.550587896e0
6.994104208e0,2.286093950e0,-9.818381667e-1,5.802585483e-1,2.554786042e0
7.004137208e0,2.549166918e0,-9.925971031e-1,5.875563622e-1,2.797985608e0
7.014170208e0,2.899042845e0,-1.395308614e0,4.639666975e-1,3.250630806e0
7.024203208e0,3.191324472e0,-1.810114384e0,2.736974359e-1,3.679127105e0
7.034236083e0,3.431549549e0,-2.169630527e0,3.425161913e-2,4.060049520e0
7.044269083e0,3.729065657e0,-2.571992397e0,-2.368211597e-1,4.536205443e0
7.054302083e0,4.005161762e0,-3.117114067e0,-4.504483640e-1,5.095156973e0
7.064335083e0,4.110067368e0,-3.561199903e0,-4.674779475e-1,5.458327047e0
7.074368083e0,4.006116390e0,-3.774147987e0,-2.645345330e-1,5.510275863e0
7.084401083e0,3.617169619e0,-3.822629690e0,2.439314127e-2,5.262794773e0
7.094434083e0,3.066785097e0,-3.885159016e0,4.216160476e-1,4.967634397e0
7.104467083e0,2.628455162e0,-3.815164089e0,9.528825879e-1,4.729930104e0
7.114500083e0,2.402766943e0,-3.472481489e0,1.625343084e0,4.524727264e0
7.124533083e0,2.374672651e0,-2.749795437e0,2.392776251e0,4.350381975e0
7.134566083e0,2.530271530e0,-1.544236660e0,3.313614368e0,4.446007317e0
7.144599083e0,2.853153467e0,1.824230999e-1,4.356469154e0,5.210814369e0
7.154632083e0,3.277427673e0,2.069087029e0,5.557072163e0,6.775227251e0
7.164665083e0,3.682967663e0,3.868555784e0,6.731771469e0,8.593411533e0
7.174698083e0,3.990729332e0,5.228634834e0,7.708585262e0,1.013345102e1
7.184731083e0,4.153840542e0,6.011589050e0,8.480679512e0,1.119444144e1
7.194764083e0,4.143445492e0,6.305582523e0,9.024295807e0,1.176292592e1
7.204797083e0,4.049512386e0,6.356198788e0,9.339615822e0,1.200117650e1
7.214830083e0,3.868042946e0,6.308263302e0,9.497603416e0,1.203995070e1
7.224863083e0,3.617617369e0,6.318456173e0,9.567154884e0,1.202249959e1
7.234896083e0,3.335641384e0,6.375460148e0,9.486812592e0,1.190683034e1
7.244929083e0,3.027763605e0,6.379559517e0,9.339878082e0,1.170894763e1
7.254961083e0,2.692279339e0,6.425859928e0,9.034542084e0,1.140889979e1
7.264994083e0,2.297127962e0,6.291532993e0,8.625014305e0,1.092021319e1
7.275027083e0,1.764010549e0,5.872168064e0,8.243992805e0,1.027411837e1
7.285060083e0,1.216537595e0,5.226887703e0,7.932513237e0,9.577321391e0
7.295093083e0,8.929882050e-1,4.495672226e0,7.714568615e0,8.973464527e0
7.305126083e0,7.626770735e-1,4.030936241e0,7.676126480e0,8.703622294e0
7.315159083e0,6.401415467e-1,4.012069702e0,7.789216042e0,8.785122141e0
7.325192083e0,5.393369198e-1,4.159731388e0,8.041964531e0,9.070140189e0
7.335225083e0,4.204150438e-1,4.385697842e0,8.104453087e0,9.224600490e0
7.345258083e0,3.073588014e-1,4.327034950e0,7.881117344e0,8.996094235e0
7.355291083e0,2.091399133e-1,4.069354534e0,7.428703308e0,8.472840059e0
7.365324083e0,1.488339603e-1,3.603089809e0,6.846815586e0,7.738429517e0
7.375357083e0,1.150728166e-1,2.854925871e0,6.219921589e0,6.844798613e0
7.385390083e0,1.617662758e-1,1.941046953e0,5.582176208e0,5.912235011e0
7.395423083e0,3.459021747e-1,1.052332044e0,4.919837952e0,5.043000745e0
7.405456083e0,6.034210324e-1,5.385885835e-1,4.268884182e0,4.344832191e0
7.415489083e0,9.155912995e-1,4.009618759e-1,3.637437820e0,3.772271431e0
7.425522083e0,1.289776564e0,4.029842615e-1,3.001718521e0,3.291843553e0
7.435555083e0,1.674670339e0,4.332093298e-1,2.478634596e0,3.022551989e0
7.445588083e0,1.852762103e0,5.060834885e-1,2.118238449e0,2.859332446e0
7.455621083e0,1.692683697e0,5.283370018e-1,1.882486105e0,2.586130704e0
7.465654083e0,1.300211787e0,5.565292239e-1,1.783488393e0,2.276204366e0
7.475687083e0,9.242370129e-1,6.430282593e-1,1.660968542e0,2.006618024e0
7.485719083e0,8.560898900e-1,2.326820344e-1,1.880067587e0,2.078866268e0
7.495752083e0,8.810240030e-2,9.394813776e-1,2.103410482e0,2.305368289e0
7.505785083e0,-6.772149801e-1,1.740974784e0,2.041715860e0,2.767348367e0
7.515818083e0,-1.280664682e0,8.599299192e-1,1.892154694e0,2.441276486e0
7.525851083e0,-1.524188399e0,6.544145346e-1,1.720742941e0,2.390055424e0
7.535884083e0,-1.569104075e0,2.722242475e-1,1.575538039e0,2.240203954e0
7.545917083e0,-1.751960397e0,-8.590314984e-1,1.675804973e0,2.572085273e0
7.555950083e0,-1.596317887e0,-1.238777876e0,1.683035135e0,2.629716466e0
7.565983083e0,-1.116869330e0,-1.544230700e0,1.413459063e0,2.372743576e0
7.576016083e0,-6.928431392e-1,-2.105025768e0,1.226261735e0,2.532761920e0
7.586049083e0,-2.407926023e-1,-3.149268389e0,1.278860450e0,3.407544059e0
7.596082083e0,4.575291872e-1,-4.612656593e0,1.633155704e0,4.914583539e0
7.606115083e0,1.233570933e0,-5.117921352e0,2.303818703e0,5.746511710e0
7.616148083e0,1.807871699e0,-2.343693018e0,2.880320311e0,4.130077740e0
7.626181083e0,2.147270918e0,5.628960133e-1,3.123840094e0,3.832231888e0
7.636214083e0,2.477348566e0,1.267001987e0,3.231307983e0,4.264258580e0
7.646247083e0,2.764686346e0,8.722479343e-1,3.205383301e0,4.321896477e0
7.656280083e0,2.935135126e0,4.156157076e-1,2.944952011e0,4.178575950e0
7.666313083e0,3.037795544e0,-5.204709619e-2,2.438605785e0,3.895857908e0
7.676346083e0,3.097606421e0,-9.262859821e-1,1.732201576e0,3.667927693e0
7.686379083e0,2.972162247e0,-1.701150298e0,1.009317160e0,3.570207541e0
7.696412083e0,2.597948790e0,-2.317739248e0,5.318681002e-1,3.521950711e0
7.706444083e0,1.980211020e0,-2.299139977e0,2.465561777e-1,3.044350548e0
7.716477083e0,1.337886572e0,-1.748769522e0,-9.293235838e-3,2.201867772e0
7.726510083e0,9.157869220e-1,-1.259436011e0,-1.481110454e-1,1.564219177e0
7.736543083e0,6.951742172e-1,-7.383787036e-1,-1.977707893e-1,1.033239366e0
7.746576083e0,6.134820580e-1,-1.571704000e-1,-2.455548346e-1,6.792348246e-1
7.756609083e0,6.170328259e-1,4.689565003e-1,-3.325545490e-1,8.433517863e-1
7.766642083e0,6.524339318e-1,1.125525117e0,-4.958033860e-1,1.392227647e0
7.776675083e0,6.506957412e-1,1.760319471e0,-7.216196656e-1,2.010687577e0
7.786708083e0,5.788556337e-1,2.230112076e0,-9.288964272e-1,2.484214622e0
7.796741083e0,4.598413408e-1,2.390554428e0,-1.070626020e0,2.659406815e0
7.806774083e0,3.769254088e-1,2.400441170e0,-1.183138371e0,2.702592640e0
7.816807083e0,3.755012453e-1,2.201146603e0,-1.295739293e0,2.581663779e0
7.826840083e0,4.795040786e-1,1.892000198e0,-1.436100364e0,2.423215460e0
7.836873083e0,8.831717372e-1,1.316893578e0,-1.227598429e0,2.005292725e0
7.846906083e0,1.310676098e0,7.348037958e-1,-8.192783594e-1,1.711439593e0
7.856939083e0,1.535585999e0,4.847054482e-1,-8.075130582e-1,1.801399754e0
7.866972083e0,1.482943535e0,2.935626507e-1,-9.940994382e-1,1.809291091e0
7.877005083e0,1.381207466e0,-1.181452945e-1,-1.180976510e0,1.821097991e0
7.887038083e0,1.198261857e0,-4.113287330e-1,-1.272619367e0,1.795712354e0
7.897071083e0,9.454150200e-1,-4.678790569e-1,-1.225424290e0,1.616906015e0
7.907104083e0,7.969294190e-1,-3.610218465e-1,-1.122071624e0,1.422841524e0
7.917137083e0,6.890897155e-1,-6.005927920e-2,-1.090666771e0,1.291512973e0
7.927169083e0,5.424417257e-1,4.206737876e-1,-1.136188149e0,1.327453567e0
7.937202083e0,3.762674034e-1,7.009018660e-1,-1.173927426e0,1.418078343e0
7.947235083e0,3.328126073e-1,6.849996448e-1,-1.191687226e0,1.414251459e0
7.957268083e0,3.904744983e-1,5.347642303e-1,-1.185420394e0,1.357816124e0
7.967301083e0,4.870210290e-1,4.165118933e-1,-1.074575424e0,1.251153061e0
7.977334083e0,5.778894424e-1,4.596477151e-1,-9.017064571e-1,1.165464184e0
7.987367083e0,6.258944869e-1,6.347681284e-1,-7.231947780e-1,1.147904688e0
7.997400083e0,6.081773639e-1,7.694971561e-1,-5.857095122e-1,1.142392757e0
8.007433083e0,5.317712426e-1,8.104022145e-1,-5.149008632e-1,1.097567903e0
8.017466083e0,3.957548738e-1,7.085134983e-1,-4.842876196e-1,9.450649691e-1
8.027499083e0,2.343153805e-1,5.286092758e-1,-4.194723964e-1,7.143448434e-1
8.037531875e0,1.241720244e-1,3.077694178e-1,-3.136611283e-1,4.566442922e-1
8.047564875e0,9.176348895e-2,1.111341193e-1,-2.083895653e-1,2.533723373e-1
8.057597875e0,1.904778332e-1,7.494693249e-2,-1.011416689e-1,2.283166328e-1
8.067630875e0,4.007112384e-1,1.829548925e-1,-1.763372496e-2,4.408547805e-1
8.077663875e0,6.313956380e-1,3.927117884e-1,3.573985770e-2,7.444194637e-1
8.087696875e0,8.296735287e-1,5.383507013e-1,5.035821348e-2,9.903108560e-1
8.097729875e0,9.075472951e-1,5.639897585e-1,7.289494574e-2,1.070999633e0
8.107762875e0,8.044856191e-1,4.692925811e-1,1.018283293e-1,9.369106930e-1
8.117795875e0,6.031129360e-1,3.351261914e-1,1.238984764e-1,7.010032883e-1
8.127828875e0,4.227999151e-1,2.405256480e-1,1.092377752e-1,4.985431246e-1
8.137860875e0,3.072599471e-1,2.395268530e-1,8.728981018e-2,3.992509228e-1
8.147893875e0,2.569940984e-1,3.334994018e-1,7.042135298e-2,4.268805273e-1
8.157926875e0,2.530279160e-1,4.308770299e-1,5.644922704e-2,5.028564968e-1
8.167959875e0,2.799498141e-1,4.742607176e-1,3.922496736e-2,5.521174918e-1
8.177992875e0,3.045566380e-1,5.016409755e-1,1.227244548e-2,5.869829869e-1
8.188025875e0,2.855017185e-1,5.113135576e-1,-3.127816366e-3,5.856300613e-1
8.198058875e0,2.428869158e-1,4.572551250e-1,4.937567282e-4,5.177610907e-1
8.208091875e0,1.862473488e-1,3.514235020e-1,-1.736247167e-2,3.981055238e-1
8.218124875e0,1.758865714e-1,3.204780221e-1,-3.190955520e-2,3.669611265e-1
8.228157875e0,2.309096158e-1,3.380927145e-1,-4.076296836e-2,4.114456876e-1
8.238190875e0,2.851468921e-1,4.097783864e-1,-4.155258834e-2,5.009527858e-1
8.248223875e0,3.480963111e-1,4.619760513e-1,-3.810832277e-2,5.796940211e-1
8.258256875e0,3.918899298e-1,4.783920050e-1,-1.636675559e-2,6.186311487e-1
8.268289875e0,2.740809917e-1,4.478359520e-1,1.764021441e-2,5.253461784e-1
8.278322875e0,1.572258174e-1,2.352741808e-1,5.573311448e-2,2.884095662e-1
8.288355875e0,1.069834158e-1,2.106707357e-2,6.546457112e-2,1.271805131e-1
8.298388875e0,1.375613511e-1,-4.357068613e-2,4.271119088e-2,1.504851349e-1
8.308421875e0,2.099071890e-1,-2.051303908e-2,9.836331010e-3,2.111363687e-1
8.318454875e0,3.560736477e-1,4.088727385e-2,-2.219222672e-2,3.590998562e-1
8.328486875e0,4.048297405e-1,1.797516793e-1,-6.133297086e-2,4.471683333e-1
8.338519875e0,2.994177043e-1,2.722395062e-1,-8.429382741e-2,4.133651652e-1