"Time (s)","Gyroscope x (rad/s)","Gyroscope y (rad/s)","Gyroscope z (rad/s)","Absolute (rad/s)"
1.516858333e-2,-2.299384624e-1,-2.004503608e-1,3.547121957e-2,3.070997412e-1
2.520158333e-2,-2.768841386e-1,-3.779434860e-1,8.646953851e-2,4.764274193e-1
3.523458334e-2,-3.159314096e-1,-5.618957281e-1,1.155789569e-1,6.549030158e-1
4.526758334e-2,-3.336817026e-1,-6.508771181e-1,1.608943194e-1,7.489135354e-1
5.530058334e-2,-3.465056121e-1,-5.750020742e-1,2.557228208e-1,7.183924315e-1
6.533358333e-2,-3.212873340e-1,-7.064445019e-1,2.995862365e-1,8.318901961e-1
7.536658333e-2,-1.882270128e-1,-6.633513570e-1,4.241353571e-1,8.095401363e-1
8.539958334e-2,4.710831493e-2,-3.739790618e-1,6.462500095e-1,7.481434400e-1
9.543258334e-2,1.774697751e-1,-4.033617079e-1,7.635095119e-1,8.815571243e-1
1.054665833e-1,1.158560738e-1,-3.133692592e-2,8.887453079e-1,8.968126087e-1
1.154995833e-1,6.278087199e-2,6.611997485e-1,9.552106261e-1,1.163423348e0
1.255325833e-1,-7.411708683e-2,1.297318339e0,1.022212386e0,1.653313757e0
1.355655833e-1,-2.535755336e-1,1.695802331e0,1.102938652e0,2.038754465e0
1.455985833e-1,-3.931120634e-1,1.834205031e0,1.171957374e0,2.211861044e0
1.556315833e-1,-4.959018230e-1,1.570603728e0,1.209378242e0,2.043357635e0
1.656645833e-1,-5.449884534e-1,9.542425275e-1,1.185819149e0,1.616712179e0
1.756975833e-1,-5.458278656e-1,1.763840765e-1,1.068161845e0,1.212439330e0
1.857305833e-1,-4.973512888e-1,-5.229222178e-1,8.878637552e-1,1.144162575e0
1.957635833e-1,-4.053252041e-1,-1.091321826e0,6.876923442e-1,1.352106730e0
2.057965833e-1,-3.368154764e-1,-1.448728681e0,5.124072433e-1,1.573156266e0
2.158295833e-1,-3.131921589e-1,-1.680395722e0,3.927035332e-1,1.753862930e0
2.258635833e-1,-3.461929560e-1,-1.864043355e0,3.015495241e-1,1.919749803e0
2.358965833e-1,-4.173009396e-1,-2.051768064e0,1.699920446e-1,2.100664076e0
2.459295833e-1,-4.915310442e-1,-2.138097525e0,3.828306869e-2,2.194203588e0
2.559625833e-1,-5.087140203e-1,-2.102018356e0,-5.252859369e-2,2.163337786e0
2.659955833e-1,-5.340243578e-1,-2.232455015e0,-1.513695717e-1,2.300423908e0
2.760285833e-1,-5.550385714e-1,-2.167749166e0,-2.252153009e-1,2.248983369e0
2.860615833e-1,-5.722218752e-1,-1.867398500e0,-2.480116636e-1,1.968787652e0
2.960945833e-1,-6.849260330e-1,-1.661407828e0,-2.975198328e-1,1.821515219e0
3.061275833e-1,-7.220844626e-1,-1.286177874e0,-2.840489745e-1,1.502112950e0
3.161605833e-1,-7.022795677e-1,-8.930004239e-1,-2.280429602e-1,1.158727725e0
3.261935833e-1,-6.363062859e-1,-6.276031733e-1,-1.677666008e-1,9.093498034e-1
3.362275833e-1,-5.085709691e-1,-5.048719049e-1,-1.151966006e-1,7.258170070e-1
3.462602083e-1,-3.077028990e-1,-3.636614680e-1,-8.438415825e-2,4.837886145e-1
3.562932083e-1,-8.643041551e-2,-2.501160204e-1,-7.379090786e-2,2.747241134e-1
3.663262083e-1,1.258658469e-1,-7.366570830e-2,-7.467193902e-2,1.638436647e-1
3.763592083e-1,3.185966611e-1,3.811353445e-1,-6.712959707e-2,5.012727462e-1
3.863922083e-1,4.670803845e-1,8.910243511e-1,1.704581082e-2,1.006170482e0
3.964252083e-1,5.376126766e-1,9.599323273e-1,2.630619705e-1,1.131237846e0
4.064582083e-1,4.945369065e-1,7.961189747e-1,6.577308774e-1,1.144981258e0
4.164912083e-1,4.014810026e-1,8.525286913e-1,9.952335358e-1,1.370577234e0
4.265242083e-1,4.274808764e-1,6.669356227e-1,8.638109565e-1,1.172054774e0
4.365582083e-1,5.734788179e-1,4.920082688e-1,6.371954083e-1,9.884169564e-1
4.465912083e-1,7.520625591e-1,2.023178637e-1,3.845996857e-1,8.685893904e-1
4.566242083e-1,8.474103808e-1,-1.769586205e-1,1.687465981e-2,8.658541800e-1
4.666572083e-1,8.716095090e-1,8.703515679e-2,-2.534901798e-1,9.118856978e-1
4.766902083e-1,7.172433734e-1,4.749352336e-1,-3.316241205e-1,9.219414787e-1
4.867232083e-1,4.873087704e-1,5.539326668e-1,-2.468723506e-1,7.779827726e-1
4.967562083e-1,2.405879647e-1,3.543654680e-1,-1.544755697e-1,4.553242310e-1
5.067892083e-1,3.254053649e-3,-1.818813942e-2,-1.100814492e-1,1.116213363e-1
5.168222083e-1,-2.074017227e-1,-5.380558372e-1,-9.477280080e-2,5.843812473e-1
5.268552083e-1,-3.804224730e-1,-1.020234823e0,-1.526608616e-1,1.099502474e0
5.368882083e-1,-5.149914622e-1,-1.334527493e0,-2.815061808e-1,1.457883934e0
5.469212083e-1,-6.357924938e-1,-1.359263897e0,-3.888244033e-1,1.550166073e0
5.569552083e-1,-6.230010390e-1,-1.295238376e0,-5.949839950e-1,1.555563788e0
5.669882083e-1,-4.855232537e-1,-1.066681862e0,-8.414616585e-1,1.442775363e0
5.770212083e-1,-3.314908147e-1,-6.799210906e-1,-1.020279050e0,1.270097709e0
5.870542083e-1,-2.443550527e-1,-2.965092957e-1,-1.040359139e0,1.109042061e0
5.970872083e-1,-1.893714219e-1,-1.004197001e-1,-9.813395143e-1,1.004476428e0
6.071202083e-1,-1.788513660e-1,-8.896577172e-3,-9.038487077e-1,9.214170861e-1
6.171532083e-1,-2.018610835e-1,4.583803937e-2,-7.867343426e-1,8.135108780e-1
6.271862083e-1,-2.362968624e-1,1.001003534e-1,-5.839838982e-1,6.378820277e-1
6.372192083e-1,-2.624794543e-1,3.369762897e-1,-2.667452097e-1,5.035886125e-1
6.472522083e-1,-3.112844229e-1,5.711956620e-1,-9.382185526e-4,6.505100741e-1
6.572852083e-1,-3.572812080e-1,5.706377625e-1,1.577073485e-1,6.914831346e-1
6.673182083e-1,-3.708893061e-1,6.043203473e-1,2.154954970e-1,7.410804739e-1
6.773522083e-1,-3.589945734e-1,6.987829208e-1,1.934250891e-1,8.090660908e-1
6.873852083e-1,-3.421226442e-1,6.392538548e-1,1.719844192e-1,7.451657768e-1
6.974182083e-1,-3.592952192e-1,3.594611287e-1,1.631962657e-1,5.337961959e-1
7.074512083e-1,-3.859210610e-1,7.555726916e-2,2.005043477e-1,4.414135926e-1
7.174842083e-1,-3.883391917e-1,-9.095341712e-2,2.771956623e-1,4.857131736e-1
7.275172083e-1,-3.645558655e-1,-2.322355509e-1,3.217321932e-1,5.388375770e-1
7.375502083e-1,-3.103219271e-1,-4.054129124e-1,3.213926256e-1,6.032847982e-1
7.475832083e-1,-2.328811735e-1,-5.259621739e-1,2.807361186e-1,6.400645418e-1
7.576162083e-1,-1.506717801e-1,-5.536880493e-1,2.141104937e-1,6.124669336e-1
7.676492083e-1,-1.065444946e-1,-5.073723793e-1,1.172021180e-1,5.315212104e-1
7.776822083e-1,-1.097136587e-1,-2.704836726e-1,-1.283284463e-2,2.921697896e-1
7.877162083e-1,-1.460774839e-1,2.320575863e-1,-1.238397360e-1,3.008747827e-1
7.977492083e-1,-2.183226496e-1,7.718145847e-1,-2.111725062e-1,8.294313473e-1
8.077822083e-1,-3.008096814e-1,1.015583038e0,-2.421593517e-1,1.086524976e0
8.178152083e-1,-3.655061126e-1,9.626576900e-1,-1.974017471e-1,1.048461729e0
8.278482083e-1,-3.725181520e-1,7.456250787e-1,-1.171239391e-1,8.416914807e-1
8.378812083e-1,-3.308330178e-1,4.866302907e-1,-1.002895609e-1,5.969233800e-1
8.479142083e-1,-2.638631761e-1,3.326960504e-1,-1.736930609e-1,4.587806851e-1
8.579472083e-1,-1.808606982e-1,3.128195405e-1,-2.621595562e-1,4.464238904e-1
8.679802083e-1,-1.005151421e-1,3.474686742e-1,-3.192144036e-1,4.824267911e-1
8.780132083e-1,-3.473079950e-2,4.074614346e-1,-3.710621595e-1,5.521939653e-1
8.880462083e-1,2.621004917e-2,4.806352258e-1,-4.136567414e-1,6.346724247e-1
8.980792083e-1,9.125429392e-2,6.801707149e-1,-4.132144153e-1,8.010653535e-1
9.081132083e-1,1.578599215e-1,9.145250320e-1,-3.675871193e-1,9.981964132e-1
9.181462083e-1,2.068759352e-1,9.818739891e-1,-3.048510253e-1,1.048717469e0
9.281792083e-1,2.244735211e-1,1.003226280e0,-2.256133705e-1,1.052498325e0
9.382122083e-1,1.952157617e-1,1.071228981e0,-1.455715299e-1,1.098558962e0
9.482452083e-1,1.291787773e-1,1.066516876e0,-4.560203478e-2,1.075279010e0
9.582782083e-1,-1.249713264e-2,7.516248822e-1,-2.875876147e-3,7.517342699e-1
9.683112083e-1,-2.806161642e-1,4.115726352e-1,-5.499867350e-2,5.011609719e-1
9.783442083e-1,-6.124159098e-1,3.744297922e-1,-1.119815335e-1,7.264921057e-1
9.883772083e-1,-9.467526674e-1,1.918757409e-1,-1.504443288e-1,9.776453392e-1
9.984102083e-1,-1.221853137e0,-7.830646634e-2,-1.527418345e-1,1.233850501e0
1.008443208e0,-1.419095755e0,-3.357194066e-1,-1.061513424e-1,1.462124614e0
1.018476208e0,-1.515702963e0,-4.327878952e-1,-3.987591341e-2,1.576784996e0
1.028510208e0,-1.518551588e0,-3.580639064e-1,2.426292747e-2,1.560383727e0
1.038543208e0,-1.436700940e0,-1.816987097e-1,4.106801003e-2,1.448727232e0
1.048576208e0,-1.311779976e0,4.113652930e-2,2.364364453e-2,1.312637780e0
1.058609208e0,-1.124845505e0,1.427007020e-1,2.350143157e-2,1.134104588e0
1.068642208e0,-8.678916097e-1,8.420449495e-2,3.113941848e-2,8.725227255e-1
1.078675208e0,-5.593761206e-1,-1.148044765e-1,-8.469244465e-3,5.710984505e-1
1.088708208e0,-2.101504803e-1,-4.305696487e-1,-6.816741824e-2,4.839423971e-1
1.098741208e0,1.758430302e-1,-7.464740872e-1,-9.949311614e-2,7.733325380e-1
1.108774208e0,5.466228127e-1,-8.604364395e-1,-6.441903859e-2,1.021419198e0
1.118807208e0,8.769935369e-1,-7.484710217e-1,2.482722141e-2,1.153231514e0
1.128840208e0,1.108805537e0,-5.195350647e-1,1.335765719e-1,1.231750423e0
1.138873208e0,1.212826133e0,-2.277441919e-1,1.921757013e-1,1.248897972e0
1.148907208e0,1.175881743e0,1.449762881e-1,1.698247343e-1,1.196894498e0
1.158940208e0,9.879986644e-1,3.368479908e-1,1.049863622e-1,1.049109177e0
1.168973208e0,6.853784323e-1,3.297907114e-1,1.264304668e-1,7.710318876e-1
1.179006208e0,3.351109326e-1,2.246741503e-1,2.114593387e-1,4.555138449e-1
1.189039208e0,-1.538757468e-3,-3.447977081e-2,3.182848394e-1,3.201506854e-1
1.199072208e0,-2.820657492e-1,-2.630921602e-1,4.042721689e-1,5.587616291e-1
1.209105208e0,-4.727207422e-1,-3.221410811e-1,4.226620495e-1,7.112545145e-1
1.219138208e0,-5.682973266e-1,-2.370331138e-1,3.454815149e-1,7.060481751e-1
1.229171208e0,-5.989602804e-1,-1.120650247e-1,1.864659041e-1,6.372452594e-1
1.239204208e0,-5.759921074e-1,-1.819498464e-2,2.922861092e-2,5.770201703e-1
1.249237208e0,-5.162103772e-1,-4.910571128e-2,-2.908858284e-2,5.193560148e-1
1.259270208e0,-4.103742242e-1,-3.317691088e-1,3.966838121e-3,5.277248158e-1
1.269304208e0,-2.400619239e-1,-6.709802151e-1,-5.851861089e-3,7.126558921e-1
1.279337208e0,-2.482658066e-2,-8.346362710e-1,-7.489271462e-2,8.383573121e-1
1.289370208e0,1.900476813e-1,-7.632581592e-1,-1.470953822e-1,8.001988441e-1
1.299403208e0,3.903267086e-1,-5.082232356e-1,-1.569253802e-1,6.597509921e-1
1.309436208e0,5.503013730e-1,-2.046113908e-1,-1.018797681e-1,5.958833019e-1
1.319469208e0,6.710602641e-1,6.232338026e-2,-1.771775447e-2,6.741809851e-1
1.329502208e0,7.407029867e-1,2.265124470e-1,5.234893411e-2,7.763306087e-1
1.339538333e0,7.583019733e-1,2.566066980e-1,5.898340046e-2,8.027128514e-1
1.349571333e0,7.285959721e-1,1.649591625e-1,3.385791183e-2,7.478034327e-1
1.359604333e0,6.540505886e-1,2.601112798e-2,2.252855897e-2,6.549551795e-1
1.369637333e0,5.483821034e-1,-7.565902174e-2,4.902725667e-2,5.557435477e-1
1.379670333e0,4.188118875e-1,-1.111323312e-1,4.175283015e-2,4.353126359e-1
1.389704333e0,2.824367583e-1,1.669364423e-2,-4.785182700e-2,2.869477261e-1
1.399737333e0,1.643519402e-1,2.461255044e-1,-1.357252300e-1,3.255927858e-1
1.409770333e0,6.607562304e-2,3.887255490e-1,-1.292825639e-1,4.149548430e-1
1.419803333e0,-6.254230160e-3,4.117158353e-1,-4.493280873e-2,4.142076795e-1
1.429836333e0,-6.221325323e-2,3.157198727e-1,3.612244874e-2,3.238122268e-1
1.439869333e0,-9.101320803e-2,2.153474838e-1,6.156708673e-2,2.417611403e-1
1.449902333e0,-8.982505649e-2,1.851757914e-1,5.804278329e-2,2.138400785e-1
1.459935333e0,-7.009263337e-2,1.392327994e-1,2.231328562e-2,1.574694650e-1
1.469968333e0,-3.198100999e-2,1.291232407e-1,-3.939839453e-2,1.387365481e-1
1.480001333e0,4.122133832e-3,2.063205540e-1,-1.294063181e-1,2.435798804e-1
1.490034333e0,1.594081894e-2,3.179481328e-1,-2.273097336e-1,3.911711132e-1
1.500067333e0,6.152371410e-3,3.812288344e-1,-2.821439505e-1,4.743189693e-1
1.510101333e0,-3.749572858e-2,3.544191420e-1,-2.525592744e-1,4.368123682e-1
1.520134333e0,-1.115870029e-1,2.541473806e-1,-1.430759132e-1,3.122711437e-1
1.530167333e0,-2.184643447e-1,1.061151177e-1,1.902443171e-2,2.436165370e-1
1.540200333e0,-3.522602320e-1,-1.564427316e-1,1.385047585e-1,4.095670488e-1
1.550233333e0,-5.000812411e-1,-3.763610423e-1,1.409434974e-1,6.415558832e-1
1.560266333e0,-6.342204213e-1,-3.263593912e-1,8.834899962e-2,7.187152014e-1
1.570299333e0,-7.558125854e-1,-2.739027441e-1,2.184012346e-2,8.042091571e-1
1.580332333e0,-8.397037387e-1,-2.262316197e-1,-6.975546014e-3,8.696733713e-1
1.590365333e0,-8.870311379e-1,-2.176310122e-1,-1.319815032e-2,9.134340087e-1
1.600398333e0,-9.061896205e-1,-2.367024422e-1,-2.393971663e-3,9.365967145e-1
1.610431333e0,-8.947530985e-1,-2.634525597e-1,-3.443015041e-3,9.327390915e-1
1.620464333e0,-8.538506627e-1,-3.047627211e-1,-2.915130742e-2,9.070783147e-1
1.630498333e0,-7.884529233e-1,-3.668403327e-1,-4.298482090e-2,8.706764823e-1
1.640531333e0,-6.910603046e-1,-4.175051153e-1,-5.999709666e-2,8.096138076e-1
1.650564333e0,-5.695825815e-1,-4.352914393e-1,-8.762183785e-2,7.222053314e-1
1.660597333e0,-4.269109368e-1,-4.179707468e-1,-1.331965029e-1,6.121223746e-1
1.670630333e0,-3.175100982e-1,-3.671097755e-1,-1.806011945e-1,5.178793694e-1
1.680663333e0,-2.509286702e-1,-3.077801168e-1,-2.353171706e-1,4.615928602e-1
1.690696333e0,-2.262242138e-1,-3.398257494e-1,-2.630136907e-1,4.856285992e-1
1.700729333e0,-2.117981464e-1,-3.979910314e-1,-1.998243183e-1,4.931379868e-1
1.710762333e0,-2.115804404e-1,-4.561756849e-1,-7.869617641e-2,5.089750745e-1
1.720795333e0,-2.213787436e-1,-4.952173829e-1,6.353978813e-2,5.461557554e-1
1.730828333e0,-2.566736042e-1,-4.683691263e-1,2.196628302e-1,5.774969581e-1
1.740861333e0,-3.109277785e-1,-4.316973984e-1,3.536067605e-1,6.388086320e-1
1.750894333e0,-3.601236045e-1,-4.086871445e-1,4.252597094e-1,6.910571706e-1
1.760928333e0,-4.104999602e-1,-3.092359304e-1,3.986861408e-1,6.504519328e-1
1.770961333e0,-4.814902246e-1,-1.556246877e-1,2.830437124e-1,5.797979156e-1
1.780994333e0,-5.640697479e-1,-3.707939014e-2,1.442061961e-1,5.833909398e-1
1.791027333e0,-6.448192596e-1,7.371075451e-2,3.858580068e-2,6.501646076e-1
1.801060333e0,-7.402898073e-1,1.697384864e-1,-1.788839325e-2,7.597105680e-1
1.811093333e0,-8.452196717e-1,2.009340823e-1,-1.870836876e-2,8.689768708e-1
1.821126333e0,-9.595353603e-1,1.989729404e-1,4.112567008e-2,9.808107154e-1
1.831159333e0,-1.063084364e0,2.554440200e-1,1.193211973e-1,1.099835242e0
1.841192333e0,-1.118094563e0,3.704939187e-1,1.628399193e-1,1.189082855e0
1.851225333e0,-1.095798373e0,4.987778664e-1,1.615695804e-1,1.214766712e0
1.861258333e0,-9.996741414e-1,6.268119812e-1,1.375356168e-1,1.187921586e0
1.871291333e0,-8.525842428e-1,6.969985366e-1,1.345022619e-1,1.109413228e0
1.881325333e0,-6.897263527e-1,6.206342578e-1,1.649411172e-1,9.423984803e-1
1.891358333e0,-5.380974412e-1,3.947144449e-1,2.333609164e-1,7.069693533e-1
1.901391333e0,-4.150343835e-1,6.270880997e-2,3.279697299e-1,5.326819671e-1
1.911424333e0,-3.208498955e-1,-2.294764072e-1,3.918258548e-1,5.559960228e-1
1.921457333e0,-2.488249838e-1,-4.322969019e-1,4.056263566e-1,6.429053003e-1
1.931490333e0,-1.629294902e-1,-5.200348496e-1,3.739203215e-1,6.609074598e-1
1.941523333e0,-6.524126232e-2,-4.558521509e-1,3.169712722e-1,5.590423895e-1
1.951556333e0,2.285606414e-2,-2.961675525e-1,2.332900017e-1,3.777060282e-1
1.961589333e0,7.836672664e-2,-1.408749074e-1,1.397094429e-1,2.133209127e-1
1.971622333e0,6.610427797e-2,-1.617669873e-2,3.450778127e-2,7.630365729e-2
1.981655333e0,-4.126318917e-2,4.890270159e-2,-9.668272734e-2,1.159382369e-1
1.991688333e0,-2.243978977e-1,4.903098568e-2,-2.523622215e-1,3.412405968e-1
2.001721333e0,-4.688598216e-1,7.683651894e-2,-3.903805315e-1,6.149230377e-1
2.011755333e0,-7.158019543e-1,1.506134719e-1,-4.827822149e-1,8.764334103e-1
2.021788333e0,-9.524824023e-1,2.789445519e-1,-5.145281553e-1,1.117932025e0
2.031821333e0,-1.160940409e0,4.406897724e-1,-4.839244187e-1,1.332731387e0
2.041854333e0,-1.355442286e0,5.792899728e-1,-3.981629312e-1,1.526870781e0
2.051887333e0,-1.545807838e0,5.759243965e-1,-2.493187189e-1,1.668343672e0
2.061920333e0,-1.724185109e0,3.755864799e-1,-4.730225354e-2,1.765252672e0
2.071953333e0,-1.857014060e0,1.377775818e-1,1.358277500e-1,1.867065360e0
2.081986333e0,-1.896225095e0,-1.184813865e-2,2.129212022e-1,1.908178563e0
2.092019333e0,-1.844698429e0,-3.914785013e-2,1.698574424e-1,1.852915648e0
2.102052333e0,-1.739494801e0,4.738115240e-3,8.328606933e-2,1.741493951e0
2.112085333e0,-1.627172351e0,6.646599621e-2,7.091823034e-3,1.628544713e0
2.122118333e0,-1.520466447e0,1.315286309e-1,-2.318299189e-2,1.526320886e0
2.132152333e0,-1.418873072e0,1.616685688e-1,-2.597777359e-2,1.428290014e0
2.142185333e0,-1.290489197e0,1.653826088e-1,-4.260388762e-2,1.301740706e0
2.152218333e0,-1.117608309e0,1.389326304e-1,-7.590884715e-2,1.128766035e0
2.162251333e0,-8.727812171e-1,1.423675716e-1,-1.054467633e-1,8.905810453e-1
2.172284333e0,-5.606563687e-1,2.335423827e-1,-1.374220252e-1,6.227057261e-1
2.182317333e0,-2.017629296e-1,4.051963985e-1,-1.809037179e-1,4.874613382e-1
2.192350333e0,1.714362949e-1,6.257787943e-1,-2.108544111e-1,6.822382907e-1
2.202383333e0,5.136279464e-1,8.355965018e-1,-2.171527892e-1,1.004584748e0
2.212416333e0,8.315263391e-1,1.051229954e0,-1.959190816e-1,1.354586562e0
2.222449333e0,1.144096017e0,1.267519593e0,-1.646293402e-1,1.715419609e0
2.232482333e0,1.439319253e0,1.383623719e0,-1.403772831e-1,2.001439554e0
2.242515333e0,1.733585835e0,1.371127129e0,-1.065415516e-1,2.212839929e0
2.252548333e0,2.011847258e0,1.309056401e0,-5.552017130e-3,2.400247669e0
2.262582333e0,2.248977900e0,1.247946739e0,1.566768438e-1,2.576784875e0
2.272615333e0,2.410769939e0,1.318402171e0,3.405748010e-1,2.768751918e0
2.282648333e0,2.501595497e0,1.478876591e0,4.492728114e-1,2.940561521e0
2.292681333e0,2.573136806e0,1.499855280e0,4.543231130e-1,3.012807391e0
2.302714333e0,2.711836576e0,1.280748487e0,4.100089073e-1,3.026959135e0
2.312747333e0,3.001682043e0,9.171373248e-1,3.987502754e-1,3.163895975e0
2.322780333e0,3.508999348e0,4.914824665e-1,4.404644370e-1,3.570523821e0
2.332813333e0,4.315279007e0,1.972864568e-1,5.725749135e-1,4.357567772e0
2.342842875e0,5.465328693e0,1.329897642e-1,7.617869377e-1,5.519766602e0
2.352875875e0,6.951796532e0,8.975949883e-2,1.018595576e0,7.026597237e0
2.362908875e0,8.635603905e0,-1.839159876e-1,1.395958781e0,8.749638896e0
2.372941875e0,1.038303471e1,-7.826735973e-1,1.829295516e0,1.057195865e1
2.382975875e0,1.213281155e1,-1.834024906e0,2.102555037e0,1.244947794e1
2.393008875e0,1.391441441e1,-2.850201845e0,2.126769543e0,1.436167565e1
2.403041875e0,1.569927788e1,-4.239113331e0,1.806397319e0,1.636155491e1
2.413074875e0,1.725470161e1,-7.256836891e0,1.248642325e0,1.876021101e1
2.423107875e0,1.837979889e1,-9.582914352e0,2.944373786e-1,2.073007352e1
2.433140875e0,1.851452065e1,-1.023102570e1,-7.611167431e-1,2.116697097e1
2.443173875e0,1.836582184e1,-1.044694233e1,-1.831873894e0,2.120843648e1
2.453206875e0,1.810468102e1,-1.084535122e1,-2.918973923e0,2.130543420e1
2.463239875e0,1.771502686e1,-1.141948509e1,-4.040245056e0,2.146043794e1
2.473272875e0,1.717124748e1,-1.216652870e1,-5.199665070e0,2.167746935e1
2.483305875e0,1.643627548e1,-1.306260872e1,-6.403246880e0,2.194958926e1
2.493338875e0,1.547643471e1,-1.408129787e1,-7.631932259e0,2.227216584e1
2.503371875e0,1.425311375e1,-1.519547462e1,-8.874963760e0,2.264550027e1
2.513405875e0,1.273376465e1,-1.635676575e1,-1.009858418e1,2.305805608e1
2.523438875e0,1.089434719e1,-1.750565910e1,-1.125832367e1,2.349222751e1
2.533471875e0,8.735085487e0,-1.856927299e1,-1.229240417e1,2.392117929e1
2.543504875e0,6.273399353e0,-1.945177650e1,-1.313837051e1,2.429699423e1
2.553537875e0,3.579316139e0,-2.007115364e1,-1.373048401e1,2.458025434e1
2.563570875e0,7.366592288e-1,-2.035792923e1,-1.402102184e1,2.473008295e1
2.573603875e0,-2.148330927e0,-2.026612091e1,-1.397614098e1,2.471160657e1
2.583636875e0,-4.944658756e0,-1.979917717e1,-1.360936356e1,2.452900005e1
2.593669875e0,-7.547828197e0,-1.900485802e1,-1.294460487e1,2.420159363e1
2.603702875e0,-9.884904861e0,-1.795360184e1,-1.204496193e1,2.377234256e1
2.613735875e0,-1.189999485e1,-1.674075127e1,-1.097720623e1,2.328866005e1
2.623768875e0,-1.359122753e1,-1.546575642e1,-9.806936264e0,2.280541791e1
2.633802875e0,-1.496814823e1,-1.420010471e1,-8.591160774e0,2.234941786e1
2.643835875e0,-1.606044579e1,-1.300643158e1,-7.372215748e0,2.194207707e1
2.653868875e0,-1.691397476e1,-1.192625332e1,-6.180527687e0,2.159900421e1
2.663901875e0,-1.755698967e1,-1.099187946e1,-5.028521538e0,2.131561234e1
2.673934875e0,-1.802733231e1,-1.021693611e1,-3.924616575e0,2.108964459e1
2.683967875e0,-1.836055183e1,-9.613312721e0,-2.863083363e0,2.092182811e1
2.694000875e0,-1.858068657e1,-9.177223206e0,-1.837491989e0,2.080480031e1
2.704033875e0,-1.869289207e1,-8.917996407e0,-8.398151398e-1,2.072824555e1
2.714066875e0,-1.871497345e1,-8.833633423e0,1.486798972e-1,2.069554098e1
2.724099875e0,-1.865338707e1,-8.916686058e0,1.132521629e0,2.070600745e1
2.734132875e0,-1.849714661e1,-9.172422409e0,2.131235838e0,2.075620224e1
2.744165875e0,-1.824024010e1,-9.601424217e0,3.153885365e0,2.085283431e1
2.754199875e0,-1.786829376e1,-1.019065571e1,4.212385654e0,2.099689450e1
2.764232875e0,-1.735511208e1,-1.094526196e1,5.312201500e0,2.119476726e1
2.774265875e0,-1.667510223e1,-1.185156918e1,6.448129654e0,2.144987418e1
2.784298875e0,-1.578851795e1,-1.289382648e1,7.621077061e0,2.176255675e1
2.794331875e0,-1.466545486e1,-1.404291439e1,8.817461967e0,2.213654550e1
2.804364875e0,-1.326464081e1,-1.525007439e1,9.996607780e0,2.254878337e1
2.814397875e0,-1.156818867e1,-1.646242332e1,1.112418365e1,2.299090761e1
2.824430875e0,-9.561125755e0,-1.760824013e1,1.214447117e1,2.342975514e1
2.834463875e0,-7.259418488e0,-1.859699249e1,1.299916649e1,2.382279614e1
2.844496875e0,-4.708514690e0,-1.933961296e1,1.361639595e1,2.411632183e1
2.854529875e0,-1.992987394e0,-1.976484489e1,1.394640160e1,2.427186045e1
2.864562875e0,7.878441215e-1,-1.983943558e1,1.396080208e1,2.427195701e1
2.874596875e0,3.524291754e0,-1.955371094e1,1.366252518e1,2.411291849e1
2.884629875e0,6.111775398e0,-1.895097160e1,1.308059883e1,2.382425632e1
2.894662875e0,8.468813896e0,-1.808844948e1,1.225327682e1,2.343193561e1
2.904695875e0,1.053784943e1,-1.705037689e1,1.125424576e1,2.298738067e1
2.914728875e0,1.230400848e1,-1.592965984e1,1.014335537e1,2.253952851e1
2.924761875e0,1.376475811e1,-1.480162430e1,8.971961021e0,2.211453667e1
2.934794875e0,1.494247437e1,-1.372054672e1,7.786406517e0,2.172922155e1
2.944827875e0,1.586726665e1,-1.272148418e1,6.616300583e0,2.138648509e1
2.954860875e0,1.657754135e1,-1.183406830e1,5.475304604e0,2.109120694e1
2.964893875e0,1.709986305e1,-1.108273315e1,4.379450321e0,2.084254964e1
2.974926875e0,1.748021698e1,-1.048118496e1,3.322248936e0,2.065067945e1
2.984959875e0,1.772870445e1,-1.003221416e1,2.297266483e0,2.049950526e1
2.994993875e0,1.786810112e1,-9.730759621e0,1.305803537e0,2.038778662e1
3.005026875e0,1.790695763e1,-9.576035500e0,3.353466392e-1,2.030940779e1
3.015059875e0,1.786316681e1,-9.573018074e0,-6.255999804e-1,2.027626146e1
3.025092875e0,1.773699188e1,-9.743097305e0,-1.587005377e0,2.029895101e1
3.035125875e0,1.752334404e1,-1.008979702e1,-2.563247442e0,2.038239014e1
3.045158875e0,1.720692825e1,-1.059581947e1,-3.574661970e0,2.052140294e1
3.055191875e0,1.677160454e1,-1.125480652e1,-4.619264603e0,2.071943518e1
3.065224875e0,1.616981125e1,-1.204424095e1,-5.704675674e0,2.095399390e1
3.075257875e0,1.539072514e1,-1.293063259e1,-6.816452503e0,2.122592057e1
3.085290875e0,1.439864063e1,-1.388471413e1,-7.953039169e0,2.152572811e1
3.095323875e0,1.317269516e1,-1.487130833e1,-9.090310097e0,2.184741282e1
3.105356875e0,1.168165874e1,-1.583894920e1,-1.019729328e1,2.216569993e1
3.115389875e0,9.908068657e0,-1.675190926e1,-1.121972656e1,2.246505180e1
3.125423875e0,7.872891903e0,-1.756954575e1,-1.211406422e1,2.274691004e1
3.135456875e0,5.605684280e0,-1.824953461e1,-1.283099556e1,2.300225330e1
3.145489875e0,3.154649258e0,-1.872763824e1,-1.332401180e1,2.319925724e1
3.155522875e0,5.947191119e-1,-1.896159744e1,-1.355868340e1,2.331809949e1
3.165555875e0,-1.975875735e0,-1.891419411e1,-1.351606274e1,2.333098317e1
3.175588875e0,-4.466709137e0,-1.856693840e1,-1.319341469e1,2.321096472e1
3.185621875e0,-6.789887905e0,-1.793810654e1,-1.262805462e1,2.296401549e1
3.195654875e0,-8.883457184e0,-1.707028198e1,-1.185994434e1,2.260461498e1
3.205687875e0,-1.071587086e1,-1.601964569e1,-1.094322109e1,2.216332611e1
3.215720875e0,-1.228272820e1,-1.486639690e1,-9.931962013e0,2.169145081e1
3.225753875e0,-1.359905243e1,-1.367606831e1,-8.878102303e0,2.123181037e1
3.235786875e0,-1.468834782e1,-1.253375816e1,-7.808583260e0,2.082826512e1
3.245820875e0,-1.558766556e1,-1.150829983e1,-6.754035473e0,2.051909544e1
3.255853875e0,-1.632281876e1,-1.061404705e1,-5.732097149e0,2.029653529e1
3.265886875e0,-1.691621780e1,-9.861786842e0,-4.743310928e0,2.014726441e1
3.275919875e0,-1.739283562e1,-9.231554985e0,-3.793825388e0,2.005306583e1
3.285952875e0,-1.775273514e1,-8.749588966e0,-2.871768713e0,1.999904916e1
3.295985875e0,-1.802417183e1,-8.392723083e0,-1.968327284e0,1.997956164e1
3.306018875e0,-1.820297432e1,-8.125517845e0,-1.081883192e0,1.996353640e1
3.316051875e0,-1.828847122e1,-7.956779003e0,-2.155449241e-1,1.994555016e1
3.326084875e0,-1.828507233e1,-7.901597023e0,6.387861967e-1,1.992955477e1
3.336117875e0,-1.819426727e1,-7.983404636e0,1.492027044e0,1.992466451e1
3.346151375e0,-1.800958443e1,-8.216258049e0,2.354896307e0,1.993483294e1
3.356184375e0,-1.439477062e1,-8.516497612e0,2.365226746e0,1.689184568e1
3.366218375e0,6.767020702e0,-7.175189495e0,-2.398336649e0,1.015026759e1
3.376251375e0,2.779274368e1,7.575111866e0,-1.132988262e1,3.095456608e1
3.386284375e0,2.512381744e1,1.625506210e1,-7.805256367e0,3.092499432e1
3.396317375e0,1.153313637e1,1.146646214e1,-2.572602510e0,1.646545693e1
3.406350375e0,7.721353531e0,6.960801601e0,-2.104703903e0,1.060668835e1
3.416383375e0,6.595632553e0,1.190109634e1,-3.213713884e0,1.398093058e1
3.426416375e0,6.394314289e0,1.629985428e1,-3.203426600e0,1.779984401e1
3.436449375e0,6.527925491e0,1.700574875e1,-2.487055063e0,1.838463338e1
3.446482375e0,6.842401981e0,1.685031319e1,-1.850497961e0,1.828047762e1
3.456515375e0,7.058187485e0,1.671630859e1,-1.193047404e0,1.818450840e1
3.466548375e0,7.165902138e0,1.662891960e1,-5.366133451e-1,1.811516145e1
3.476582375e0,7.174286366e0,1.659827423e1,1.276475638e-1,1.808284785e1
3.486615375e0,7.077858925e0,1.662561226e1,7.857056260e-1,1.808658075e1
3.496648375e0,6.870927334e0,1.670281982e1,1.428553462e0,1.811724586e1
3.506681375e0,6.555607796e0,1.682145691e1,2.049429655e0,1.816968817e1
3.516714375e0,6.139103413e0,1.697085381e1,2.642331362e0,1.823952808e1
3.526747375e0,5.619246960e0,1.714791489e1,3.192306995e0,1.832533070e1
3.536780375e0,5.006093502e0,1.733782578e1,3.687499046e0,1.841897999e1
3.546813375e0,4.304993629e0,1.752328873e1,4.127066135e0,1.851030234e1
3.556846375e0,3.526463509e0,1.769509315e1,4.491837502e0,1.859378581e1
3.566879375e0,2.684314013e0,1.783963585e1,4.775888443e0,1.866192003e1
3.576912375e0,1.790121198e0,1.794825935e1,4.972630501e0,1.871020048e1
3.586945375e0,8.673433065e-1,1.801379395e1,5.076235294e0,1.873545360e1
3.596979375e0,-6.812433153e-2,1.802700996e1,5.081477165e0,1.872963265e1
3.607012375e0,-9.947555065e-1,1.799873543e1,4.993930817e0,1.870516935e1
3.617045375e0,-1.889888167e0,1.793323708e1,4.810783386e0,1.866323407e1
3.627078375e0,-2.744114637e0,1.782674408e1,4.534927368e0,1.859807882e1
3.637111375e0,-3.535056114e0,1.769087219e1,4.180279255e0,1.851859377e1
3.647144375e0,-4.247218609e0,1.753970718e1,3.753338099e0,1.843278983e1
3.657177375e0,-4.875036716e0,1.738098526e1,3.263993502e0,1.834443472e1
3.667210375e0,-5.403104305e0,1.722637177e1,2.722186804e0,1.825792215e1
3.677243375e0,-5.831439495e0,1.709296417e1,2.139215946e0,1.818657075e1
3.687276375e0,-6.151957035e0,1.698492813e1,1.520967245e0,1.812864309e1
3.697309375e0,-6.365137100e0,1.690783691e1,8.827869892e-1,1.808782000e1
3.707342375e0,-6.468328476e0,1.687014389e1,2.300762832e-1,1.806914395e1
3.717376375e0,-6.456495285e0,1.687361908e1,-4.256977141e-1,1.807170636e1
3.727409375e0,-6.336199760e0,1.692004204e1,-1.076268792e0,1.809954708e1
3.737442375e0,-6.099055290e0,1.699477386e1,-1.713418961e0,1.813716126e1
3.747475375e0,-5.748993874e0,1.709851837e1,-2.325530291e0,1.818841258e1
3.757508375e0,-5.289916515e0,1.722129631e1,-2.899117231e0,1.824722291e1
3.767541375e0,-4.728047371e0,1.735710716e1,-3.433259964e0,1.831422603e1
3.777574375e0,-4.068597317e0,1.748831367e1,-3.910259962e0,1.837620016e1
3.787607375e0,-3.328474522e0,1.760720825e1,-4.317520142e0,1.843186114e1
3.797640375e0,-2.525827169e0,1.770088387e1,-4.652711391e0,1.847562762e1
3.807673375e0,-1.658763647e0,1.776074219e1,-4.898608685e0,1.849842769e1
3.817706375e0,-2.327599972e-1,1.777497292e1,-4.899460316e0,1.843932078e1
3.827739375e0,1.327475071e0,1.559134007e1,-4.715620518e0,1.634286242e1
3.837773375e0,1.852650642e0,9.230788231e0,-5.641484261e0,1.097570546e1
3.847806375e0,1.616243362e0,1.115676165e0,-6.975977421e0,7.247153709e0
3.857839375e0,5.183146596e-1,-2.923134804e0,-4.050424099e0,5.021882371e0
3.867872375e0,-1.133703291e-1,-1.847720027e0,-5.428478122e-1,1.929146411e0
3.877905375e0,-2.409177572e-1,-2.732890248e-1,-1.790081978e0,1.826779063e0
3.887938375e0,-1.312226802e-1,5.722587705e-1,-2.456829309e0,2.526006680e0
3.897971375e0,-1.259195358e-1,-1.283840388e-1,-2.094717741e0,2.102422556e0
3.908004375e0,-5.813542008e-2,-1.629436135e0,-1.675227284e0,2.337697222e0
3.918037375e0,1.569033861e-1,-2.544772625e0,-1.549189448e0,2.983366275e0
3.928070375e0,2.659544945e-1,-2.541752815e0,-1.503735065e0,2.965207971e0
3.938103375e0,2.673912644e-1,-2.203513384e0,-1.480092883e0,2.667891352e0
3.948136375e0,2.386882603e-1,-1.944849133e0,-1.451122999e0,2.438271559e0
3.958169375e0,2.174755335e-1,-1.763380170e0,-1.411589265e0,2.269226627e0
3.968203375e0,2.152312994e-1,-1.657541871e0,-1.381596208e0,2.168542747e0
3.978236375e0,2.102601230e-1,-1.632542968e0,-1.373830199e0,2.144018488e0
3.988269375e0,2.108987421e-1,-1.659032106e0,-1.386245012e0,2.172220303e0
3.998302375e0,2.189146429e-1,-1.705721378e0,-1.397845149e0,2.216163374e0
4.008335375e0,2.236747742e-1,-1.736228228e0,-1.413732529e0,2.250146334e0
4.018368375e0,2.223723978e-1,-1.763767004e0,-1.428013206e0,2.280251136e0
4.028401375e0,2.152375281e-1,-1.787361860e0,-1.434240222e0,2.301745995e0
4.038434375e0,2.079758495e-1,-1.804972887e0,-1.435608149e0,2.315632059e0
4.048467375e0,1.887789965e-1,-1.839744449e0,-1.440942764e0,2.344485700e0
4.058500375e0,1.633197069e-1,-1.906542897e0,-1.442483664e0,2.396317647e0
4.068533375e0,1.251150668e-1,-1.985192418e0,-1.444661260e0,2.458391521e0
4.078567375e0,6.875195354e-2,-2.063436270e0,-1.451374173e0,2.523684422e0
4.088600375e0,-7.891689427e-3,-2.149555445e0,-1.464414120e0,2.600992042e0
4.098633375e0,-1.125663593e-1,-2.219141483e0,-1.505044341e0,2.683732210e0
4.108666375e0,3.719143942e-2,-2.731129169e0,-1.478528619e0,3.105880973e0
4.118699375e0,7.494429350e-1,-4.047071934e0,-1.298249960e0,4.315774427e0
4.128732375e0,2.104818344e0,-5.744680882e0,-4.999692440e-1,6.138533044e0
4.138765375e0,3.553377151e0,-6.029074192e0,6.838207245e-1,7.031631075e0
4.148798375e0,3.948072195e0,-3.715070486e0,9.903886914e-1,5.510888543e0
4.158831375e0,3.180501699e0,-1.111304641e0,4.619289562e-2,3.369380188e0
4.168864375e0,2.228318930e0,-4.093683362e-1,-6.447101831e-1,2.355554904e0
4.178897375e0,1.692847610e0,-1.130978703e0,-3.092319965e-1,2.059240220e0
4.188930375e0,1.354780078e0,-2.270869970e0,2.202731371e-1,2.653450534e0
4.198964375e0,1.006961942e0,-3.307365894e0,5.073533058e-1,3.494288037e0
4.208997375e0,5.791779757e-1,-3.700099707e0,6.554149389e-1,3.802072291e0
4.219030375e0,5.814588070e-2,-3.398314953e0,7.328769565e-1,3.476928831e0
4.229063375e0,-5.093641281e-1,-2.592790604e0,7.463903427e-1,2.745744612e0
4.239096375e0,-1.024226785e0,-1.317108989e0,6.689568758e-1,1.797587243e0
4.249129375e0,-1.317017674e0,1.656081378e-1,5.077536106e-1,1.421188003e0
4.259162375e0,-1.174842596e0,1.261784196e0,3.510525823e-1,1.759429566e0
4.269195375e0,-6.053961515e-1,1.688986421e0,2.826122642e-1,1.816328528e0
4.279228375e0,2.518126927e-2,1.557461619e0,3.201732337e-1,1.590230075e0
4.289261375e0,3.530302346e-1,1.211849332e0,3.707804680e-1,1.315555892e0
4.299294375e0,3.073525727e-1,8.404450417e-1,3.161748648e-1,9.490943141e-1
4.309327375e0,1.103388518e-1,3.465405107e-1,1.415524781e-1,3.902590060e-1
4.319361375e0,2.468782291e-2,-3.403594494e-1,-4.281737655e-2,3.439293112e-1
4.329394375e0,1.023988649e-1,-1.022309661e0,-1.483291537e-1,1.038077121e0
4.339427375e0,2.151253372e-1,-1.386085749e0,-1.829218268e-1,1.414557531e0
4.349459875e0,2.869665027e-1,-1.332775474e0,-2.060705572e-1,1.378805755e0
4.359492875e0,3.232233524e-1,-9.928244352e-1,-2.427603304e-1,1.071963746e0
4.369525875e0,3.532648683e-1,-4.764524102e-1,-3.083984554e-1,6.685152007e-1
4.379558875e0,3.815115094e-1,-1.506937947e-2,-3.336747289e-1,5.070670002e-1
4.389591875e0,3.714487553e-1,1.615908891e-1,-2.465036064e-1,4.741833203e-1
4.399624875e0,2.822710276e-1,3.082035184e-1,-5.389563367e-2,4.213918379e-1
4.409657875e0,1.351574808e-1,4.215527177e-1,1.286749840e-1,4.610113772e-1
4.419690875e0,-6.972176023e-3,3.157519102e-1,1.965149343e-1,3.719758049e-1
4.429723875e0,-1.102745980e-1,9.702089429e-2,1.469708234e-1,2.077834542e-1
4.439757875e0,-1.680317521e-1,-4.621838406e-2,8.627916127e-2,1.944605420e-1
4.449790875e0,-2.030962557e-1,-6.745415926e-2,1.154634058e-1,2.431665083e-1
4.459823875e0,-2.217408568e-1,2.886971831e-2,1.756534874e-1,2.843529776e-1
4.469856875e0,-1.944256127e-1,1.005428433e-1,1.782710999e-1,2.822955318e-1
4.479889875e0,-1.266631633e-1,3.028527275e-2,9.498059005e-2,1.611895380e-1
4.489922875e0,-5.590642989e-2,-4.868490994e-2,-1.616271213e-2,7.587478252e-2
4.499955875e0,-1.631812565e-2,-3.579752520e-4,-8.818794042e-2,8.968568563e-2
4.509988875e0,1.455616672e-2,7.757623494e-2,-9.878731519e-2,1.264471742e-1
4.520021875e0,6.671094894e-2,9.355086088e-2,-8.298422396e-2,1.417338905e-1
4.530054875e0,1.222833917e-1,2.202687971e-2,-9.233245254e-2,1.548021095e-1
4.540087875e0,1.505955011e-1,-8.625104278e-2,-1.219733283e-1,2.121219935e-1
4.550120875e0,1.273303926e-1,-1.172379851e-1,-1.270479858e-1,2.147066947e-1
4.560154875e0,8.137346804e-2,-9.759789705e-2,-9.040704370e-2,1.559500701e-1
4.570187875e0,5.506064370e-2,-1.017779931e-1,-2.000611648e-2,1.174337220e-1
4.580220875e0,4.304198921e-2,-1.163497120e-1,5.648033321e-2,1.363080935e-1
4.590253875e0,1.737763919e-2,-1.000703350e-1,9.241942316e-2,1.373222635e-1
4.600286875e0,-9.732012637e-3,-5.970824137e-2,1.008679345e-1,1.176185630e-1
4.610319875e0,-3.067218140e-2,8.845252916e-3,1.012309268e-1,1.061448150e-1
4.620352875e0,-3.502296284e-2,8.361242712e-2,1.000945717e-1,1.350428420e-1
4.630385875e0,-2.330239303e-2,1.269412488e-1,9.255409986e-2,1.588185870e-1
4.640418875e0,-2.617862821e-2,1.368971765e-1,6.618227810e-2,1.542927459e-1
4.650451875e0,-3.999510780e-2,1.203126088e-1,1.670420356e-2,1.278818318e-1
4.660484875e0,-5.213748664e-2,7.540438324e-2,-3.452941030e-2,9.796131227e-2
4.670518875e0,-4.409314319e-2,1.648008078e-2,-7.803347707e-2,9.113189279e-2
4.680551875e0,-2.178289741e-2,-4.645319656e-2,-9.159726650e-2,1.049878722e-1
4.690584875e0,-4.614296369e-3,-9.603086859e-2,-9.319223464e-2,1.338955266e-1
4.700617875e0,1.348108426e-2,-1.268814653e-1,-8.375798166e-2,1.526304208e-1
4.710650875e0,3.008056618e-2,-1.263978332e-1,-6.596780568e-2,1.457154902e-1
4.720683875e0,5.489689484e-2,-9.357217699e-2,-4.080929235e-2,1.159086697e-1
4.730716875e0,7.508977503e-2,-3.582366183e-2,-5.428134464e-3,8.337429882e-2
4.740749875e0,8.450344950e-2,1.907987893e-2,3.197313473e-2,9.234260177e-2
4.750782875e0,6.980492920e-2,5.126444623e-2,6.019997969e-2,1.054742108e-1
4.760815875e0,4.475356266e-2,5.135045946e-2,8.031725883e-2,1.053119800e-1
4.770848875e0,1.359590702e-2,3.658669442e-2,8.020007610e-2,8.919353734e-2
4.780881875e0,-1.390907262e-2,1.691622287e-2,7.124218345e-2,7.453233929e-2
4.790915875e0,-3.636511043e-2,1.590262633e-3,5.404135957e-2,6.515687789e-2
4.800948875e0,-5.065803230e-2,-2.623390872e-3,3.280477971e-2,6.040920449e-2
4.810981875e0,-5.463040248e-2,-2.634842414e-3,2.880969550e-3,5.476972937e-2
4.821014875e0,-5.046376586e-2,2.460704185e-3,-2.163472027e-2,5.496096661e-2
4.831047875e0,-3.511197492e-2,6.065026391e-3,-4.162520543e-2,5.479318439e-2
4.841080875e0,-1.708040573e-2,8.763088845e-3,-5.066882446e-2,5.418359307e-2
4.851113875e0,9.119099705e-4,7.125244476e-3,-5.535865203e-2,5.582276456e-2
4.861146875e0,1.363394968e-2,1.525247935e-3,-5.117873102e-2,5.298559686e-2
4.871179875e0,2.452095225e-2,-4.860479385e-3,-3.688155115e-2,4.455502412e-2
4.881212875e0,3.010625392e-2,-1.762489229e-2,-2.348448150e-2,4.205406312e-2
4.891245875e0,3.254198283e-2,-2.337492257e-2,-3.501186613e-3,4.021972103e-2
4.901278875e0,3.269381821e-2,-3.436222300e-2,1.579906605e-2,4.999258552e-2
4.911312875e0,2.995928563e-2,-3.889838606e-2,2.779953554e-2,5.642213582e-2
4.921345875e0,2.852592990e-2,-3.576024622e-2,3.988547996e-2,6.069081807e-2
4.931378875e0,2.214739285e-2,-2.235655300e-2,4.338727146e-2,5.359830032e-2
4.941411875e0,2.418280765e-2,-5.374769680e-3,4.308578745e-2,4.969991363e-2
4.951444875e0,1.539544016e-2,6.689882372e-3,3.041553125e-2,3.474015897e-2
4.961477875e0,8.251668885e-3,1.812731661e-2,1.822607405e-2,2.699776699e-2
4.971510875e0,-1.031311695e-3,2.465099655e-2,1.020189142e-3,2.469364332e-2
4.981543875e0,-1.371176261e-2,2.635625377e-2,-1.393885538e-2,3.281701138e-2
4.991576875e0,-2.279154398e-2,1.605088636e-2,-2.319573611e-2,3.626468811e-2
5.001609875e0,-3.109372035e-2,3.661488649e-3,-3.074479103e-2,4.388015633e-2
5.011642875e0,-3.178640828e-2,-7.156005129e-3,-3.315388784e-2,4.648402348e-2
5.021675875e0,-2.492329665e-2,-1.414079685e-2,-2.875837684e-2,4.059774734e-2
5.031709875e0,-1.691756770e-2,-1.342200954e-2,-2.017953806e-2,2.955618705e-2
5.041742875e0,-7.334521040e-3,-7.004262879e-3,-8.003678173e-3,1.291951089e-2
5.051775875e0,8.702502586e-3,-4.118739162e-4,5.926518701e-3,1.053692627e-2
5.061808875e0,2.049033903e-2,4.027014133e-3,1.844245009e-2,2.786027282e-2
5.071841875e0,2.728086710e-2,4.653389566e-3,2.471712232e-2,3.710573918e-2
5.081874875e0,3.039477766e-2,-1.511153649e-3,2.731446177e-2,4.089261444e-2
5.091907875e0,2.914628759e-2,-8.496358991e-3,2.761486545e-2,4.103991947e-2
5.101940875e0,2.316015773e-2,-1.579356194e-2,1.979506947e-2,3.431725921e-2
5.111973875e0,1.958859339e-2,-2.327944338e-2,8.764522150e-3,3.166168542e-2
5.122006875e0,1.361675933e-2,-2.213575318e-2,-5.117880646e-4,2.599364597e-2
5.132039875e0,9.648383595e-3,-1.796337962e-2,-1.070343889e-2,2.302906680e-2
5.142073875e0,1.242338039e-4,-1.069074869e-2,-1.687199250e-2,1.997427527e-2
5.152106875e0,-5.264139734e-3,-3.289291402e-3,-2.146301605e-2,2.234259750e-2
5.162139875e0,-1.012619585e-2,1.801857259e-3,-2.032715455e-2,2.278112692e-2
5.172172875e0,-9.933915921e-3,8.338320069e-3,-1.888931356e-2,2.291323709e-2
5.182205875e0,-1.079727709e-2,9.943492711e-3,-1.209495217e-2,1.901951913e-2
5.192238875e0,-1.161353569e-2,1.011446770e-2,-4.201609641e-3,1.596340164e-2
5.202271875e0,-9.736196138e-3,9.417749941e-3,5.052944645e-3,1.445751634e-2
5.212304875e0,-8.405414410e-3,5.261620507e-3,1.141044311e-2,1.511733620e-2
5.222337875e0,-5.114963744e-3,-1.274438109e-4,1.549469773e-2,1.631762096e-2
5.232370875e0,6.728842272e-4,-4.373587668e-3,1.706223562e-2,1.762671060e-2
5.242403875e0,9.411132894e-3,-7.083995268e-3,1.741454005e-2,2.102423879e-2
5.252437875e0,1.384795923e-2,-7.818228565e-3,1.614154875e-2,2.265922039e-2
5.262470875e0,1.373275928e-2,-7.138764951e-3,1.153782196e-2,1.930471389e-2
5.272503875e0,1.724174060e-2,-8.691388182e-3,3.291344736e-3,1.958700584e-2
5.282536875e0,1.603669859e-2,-5.782311782e-3,-2.982738661e-3,1.730628676e-2
5.292569875e0,1.055111829e-2,-7.477680221e-3,-9.782054462e-3,1.621512837e-2
5.302602875e0,8.581370115e-3,-7.314107381e-3,-1.415747870e-2,1.809890281e-2
5.312635875e0,1.304814476e-3,-7.816379890e-3,-1.342244726e-2,1.558718787e-2
5.322668875e0,-1.327758888e-3,-7.324085571e-3,-1.328716800e-2,1.523003633e-2
5.332701875e0,-5.232219119e-3,-1.808679197e-3,-1.064158417e-2,1.199544710e-2
5.342735208e0,-4.778911825e-3,-4.021584755e-4,-5.999104120e-3,7.680428368e-3
5.352768208e0,-6.934208330e-3,1.841288526e-3,-1.510691363e-4,7.176099949e-3
5.362801208e0,-4.054039251e-3,3.479803447e-3,5.549415015e-3,7.703263807e-3
5.372835208e0,1.345801866e-4,5.105929449e-3,1.107574068e-2,1.219674789e-2
5.382868208e0,4.193439963e-4,4.068300594e-3,1.303167734e-2,1.365838693e-2
5.392901208e0,3.864142811e-3,2.713816706e-3,1.379600540e-2,1.458170654e-2
5.402934208e0,6.181480363e-3,1.287280582e-3,1.023459993e-2,1.202559049e-2
5.412967208e0,7.879511453e-3,-1.036327449e-3,8.560003713e-3,1.168051107e-2
5.423000208e0,8.158304729e-3,-9.024871513e-3,4.075495061e-3,1.283027287e-2
5.433033208e0,5.171569996e-3,-9.819826111e-3,-2.999192337e-3,1.149648971e-2
5.443066208e0,4.161432851e-3,-9.581206366e-3,-3.988822922e-3,1.118158071e-2
5.453099208e0,1.421838999e-3,-4.582186695e-3,-6.426414475e-3,8.019779551e-3
5.463132208e0,7.435319130e-4,-5.503640510e-3,-7.718313485e-3,9.508694002e-3
5.473165208e0,2.439229283e-4,-3.814663738e-3,-6.711638533e-3,7.723810564e-3
5.483198208e0,-1.200958854e-3,-1.281026751e-3,-2.512449864e-3,3.065246487e-3
5.493232208e0,-2.950655529e-3,2.659386490e-3,-3.073045053e-3,5.022181841e-3
5.503265208e0,-2.099886304e-3,3.479892854e-3,6.974526914e-4,4.123786733e-3
5.513298208e0,-3.386992030e-3,3.448193893e-4,2.147543943e-3,4.025240416e-3
5.523331208e0,-1.695085084e-3,-1.550583867e-3,5.761021748e-3,6.202176663e-3
5.533364208e0,9.598201723e-4,-3.576184157e-3,5.674734712e-3,6.775910414e-3
5.543397208e0,3.933313303e-3,-3.166115144e-3,4.378423095e-3,6.683249766e-3
5.553430208e0,7.643629797e-3,-5.054828711e-3,3.746454837e-3,9.900115838e-3
5.563463208e0,5.499441642e-3,-1.196170226e-2,3.782870248e-3,1.369803952e-2
5.573496208e0,-4.348928109e-3,-2.894654498e-2,7.076667622e-3,3.011469519e-2
5.583529208e0,-4.580585659e-2,-8.482614160e-2,2.593334205e-2,9.983080199e-2
5.593562208e0,-1.263755411e-1,-1.868200488e-2,3.031876869e-2,1.312974578e-1
5.603595208e0,-2.135100216e-1,3.220938444e-1,-6.705628335e-2,3.922085148e-1
5.613629208e0,-2.484309822e-1,5.791621208e-1,-2.766097784e-1,6.882293837e-1
5.623662208e0,-1.638527960e-1,2.791640162e-1,-5.184941888e-1,6.112417775e-1
5.633695208e0,-1.048707068e-1,-4.238729477e-1,-5.351102352e-1,6.906584574e-1
5.643728208e0,-2.045760006e-1,-6.872904897e-1,-2.581089139e-1,7.621284463e-1
5.653761208e0,-3.781776130e-1,-4.639074802e-1,3.039079159e-2,5.992929646e-1
5.663794208e0,-4.250048101e-1,-1.566988528e-1,2.491570823e-2,4.536567112e-1
5.673827208e0,-2.981557846e-1,7.905374467e-2,-2.160854489e-1,3.766155701e-1
5.683860208e0,-6.361144781e-2,5.166067928e-2,-3.560836911e-1,3.653913480e-1
5.693893208e0,1.548682712e-2,-1.537968665e-1,-1.411167979e-1,2.093018601e-1
5.703926208e0,-1.534050256e-1,-3.159463033e-2,2.240962684e-1,2.734053036e-1
5.713959208e0,-3.292444944e-1,3.388425410e-1,3.392492533e-1,5.816410066e-1
5.723992208e0,-2.643256187e-1,3.369443715e-1,9.650796652e-2,4.389912639e-1
5.734026208e0,-1.827645861e-2,1.194205508e-2,-1.971502751e-1,1.983554199e-1
5.744059208e0,1.433456838e-1,-1.340903640e-1,-2.612430453e-1,3.267661848e-1
5.754092208e0,1.076835692e-1,-1.433786750e-1,-8.300645649e-2,1.975936925e-1
5.764125208e0,4.535749555e-2,-1.857863814e-1,7.636363059e-2,2.059254379e-1
5.774158208e0,1.503680646e-1,-2.804926336e-1,3.145954013e-2,3.198067776e-1
5.784191208e0,3.486702144e-1,-4.129900634e-1,-9.662931412e-2,5.490618683e-1
5.794224208e0,4.863138199e-1,-3.964470327e-1,-1.465955526e-1,6.443303789e-1
5.804257208e0,5.133400559e-1,-1.131597906e-1,-1.348858774e-1,5.426945284e-1
5.814290208e0,5.110483766e-1,2.756909281e-2,-8.236142248e-2,5.183762166e-1
5.824323208e0,5.153405666e-1,-2.125088871e-1,-4.095348716e-2,5.589392765e-1
5.834356208e0,4.893159270e-1,-4.293977916e-1,-5.036669597e-2,6.529543200e-1
5.844390208e0,3.915778697e-1,-3.910909593e-1,-4.754518718e-2,5.554690912e-1
5.854423208e0,2.862730324e-1,-2.705445886e-1,-1.958305947e-2,3.943730717e-1
5.864456208e0,2.114508599e-1,-2.463253587e-1,-3.294528276e-2,3.263020689e-1
5.874489208e0,1.076818556e-1,-1.655476838e-1,-8.872066438e-2,2.165012100e-1
5.884522208e0,-1.657537650e-3,-1.958100684e-2,-1.316897422e-1,1.331478556e-1
5.894555208e0,-6.216055900e-2,8.694969863e-2,-8.796542883e-2,1.384272439e-1
5.904588208e0,-1.052209437e-1,1.487417370e-1,1.391184330e-2,1.827268199e-1
5.914621208e0,-1.400393695e-1,1.505561471e-1,5.155323073e-2,2.119809285e-1
5.924654208e0,-1.622674614e-1,3.421167284e-2,4.397593439e-4,1.658353430e-1
5.934687208e0,-1.667359769e-1,-4.417181388e-2,-5.791809037e-2,1.819520276e-1
5.944720208e0,-1.239878610e-1,-1.923894323e-2,-3.640313074e-2,1.306457597e-1
5.954753208e0,-3.935552761e-2,3.005456924e-2,4.173801094e-2,6.476261455e-2
5.964787208e0,3.613218665e-2,4.594422877e-2,9.541021287e-2,1.118906421e-1
5.974820208e0,7.491313666e-2,2.210654318e-2,5.306755006e-2,9.442903243e-2
5.984853208e0,8.659155667e-2,-3.336305544e-2,-2.313891985e-2,9.563786262e-2
5.994886208e0,1.152317226e-1,-7.284414768e-2,-3.394016996e-2,1.404868495e-1
6.004919208e0,1.362579465e-1,-7.525873184e-2,7.923982106e-3,1.558617791e-1
6.014952208e0,1.164964959e-1,-7.456284761e-2,4.003611207e-2,1.439928542e-1
6.024985208e0,6.844082475e-2,-7.493595779e-2,2.279906720e-2,1.040160648e-1
6.035018208e0,2.061950415e-2,-5.461524054e-2,-1.715793461e-2,6.084721170e-2
6.045051208e0,-1.707624644e-2,-9.005783126e-3,-2.602099255e-2,3.240053048e-2
6.055084208e0,-5.267818272e-2,4.566784576e-2,-1.053059939e-3,6.972554773e-2
6.065117208e0,-9.603193402e-2,7.835100591e-2,2.404527739e-2,1.262504964e-1
6.075150208e0,-1.281422079e-1,7.179643959e-2,1.892854646e-2,1.480994397e-1
6.085184208e0,-1.298456341e-1,6.136859953e-2,6.601236761e-3,1.437691554e-1
6.095217208e0,-9.616650641e-2,7.030164450e-2,-4.992831964e-4,1.191241682e-1
6.105250208e0,-5.522161722e-2,7.954341173e-2,1.722718705e-3,9.684807235e-2
6.115283208e0,-1.446140651e-2,4.981028289e-2,-8.569067344e-3,5.257019569e-2
6.125316208e0,2.815096080e-2,-2.013145760e-2,-1.833525859e-2,3.916546804e-2
6.135349208e0,6.699236482e-2,-9.446454793e-2,-2.763714828e-2,1.190602357e-1
6.145382208e0,9.460587800e-2,-1.222615540e-1,-2.570262738e-2,1.567124271e-1
6.155415208e0,1.223581508e-1,-1.223222762e-1,-1.574506983e-2,1.737301458e-1
6.165448208e0,2.759677172e-1,-6.807109118e-1,1.502568461e-2,7.346776827e-1
6.175481208e0,4.313881993e-1,-9.959511161e-1,1.121168137e-1,1.091139122e0
6.185514208e0,5.578601360e-1,-8.159556389e-1,2.073370963e-1,1.009940695e0
6.195547208e0,9.307724833e-1,-4.326838851e-1,2.555177547e-3,1.026430363e0
6.205581208e0,1.225509524e0,-6.265375018e-1,-3.398730755e-1,1.417722308e0
6.215614208e0,1.233391762e0,-1.345689178e0,-6.014479995e-1,1.921945446e0
6.225647208e0,1.023733258e0,-1.469717503e0,-4.972741008e-1,1.858865475e0
6.235680208e0,7.843375206e-1,-1.233324409e0,-1.911919117e-1,1.474051827e0
6.245713208e0,6.976170540e-1,-1.166363001e0,-2.964122295e-1,1.391018481e0
6.255746208e0,6.466526985e-1,-1.330382347e0,-7.333070040e-1,1.651004562e0
6.265779208e0,4.571705163e-1,-8.739119768e-1,-8.589799404e-1,1.307888972e0
6.275812208e0,6.968007237e-2,-5.321658254e-1,-7.147159576e-1,8.937978957e-1
6.285845208e0,-3.410563171e-1,-6.553263068e-1,-5.951758623e-1,9.486866115e-1
6.295878208e0,-7.032672763e-1,-6.651469469e-1,-4.393109381e-1,1.063014310e0
6.305911208e0,-1.067402363e0,-9.145517349e-1,-3.143053353e-1,1.440326534e0
6.315944208e0,-1.319533467e0,-9.371263385e-1,-2.564274073e-1,1.638636433e0
6.325978208e0,-1.457831621e0,-8.740035295e-1,-1.897607595e-1,1.710311185e0
6.336011208e0,-1.505698204e0,-1.014493465e0,3.677517548e-2,1.815950574e0
6.346045625e0,-1.305176377e0,-1.557647467e0,2.992029786e-1,2.054087006e0
6.356078625e0,-7.238522172e-1,-2.317381382e0,4.574650526e-1,2.470524798e0
6.366111625e0,7.808899134e-2,-2.806476116e0,3.244071901e-1,2.826242400e0
6.376144625e0,9.925367832e-1,-2.783761263e0,3.043255582e-2,2.955567995e0
6.386177625e0,1.696197987e0,-2.391268969e0,-2.772195041e-1,2.944843891e0
6.396210625e0,2.053817987e0,-2.136533737e0,-4.320719540e-1,2.994934208e0
6.406243625e0,2.101660490e0,-2.029722452e0,-3.672904968e-1,2.944766944e0
6.416276625e0,1.942410231e0,-1.855980158e0,-3.155199885e-1,2.705027304e0
6.426309625e0,1.753477335e0,-1.738300085e0,-2.693508565e-1,2.483731031e0
6.436343625e0,1.612756371e0,-1.671994805e0,-3.516137600e-1,2.349506752e0
6.446376625e0,1.473453045e0,-1.437660217e0,-5.000834465e-1,2.118493387e0
6.456409625e0,1.299590230e0,-1.051409006e0,-6.253108382e-1,1.784771500e0
6.466442625e0,1.124594331e0,-5.142126679e-1,-7.919769287e-1,1.468453109e0
6.476475625e0,1.087232471e0,1.583015621e-1,-9.950520396e-1,1.482316562e0
6.486508625e0,1.097197771e0,7.016755939e-1,-1.174194694e0,1.753546340e0
6.496541625e0,1.133697152e0,9.123888612e-1,-1.335276842e0,1.975015674e0
6.506574625e0,1.291262269e0,9.295525551e-1,-1.467608213e0,2.164555397e0
6.516607625e0,1.481183648e0,6.219167113e-1,-1.572108865e0,2.247712543e0
6.526640625e0,1.730027795e0,1.999347806e-1,-1.613450050e0,2.374066375e0
6.536673625e0,1.981382608e0,2.485643700e-2,-1.566214085e0,2.525771455e0
6.546706625e0,2.108236790e0,-6.949831266e-3,-1.497377038e0,2.585894169e0
6.556740625e0,2.131581306e0,4.010076821e-2,-1.425028443e0,2.564362104e0
6.566773625e0,2.188380241e0,1.785169393e-1,-1.369912982e0,2.587960192e0
6.576806625e0,2.279162884e0,3.056112230e-1,-1.405145884e0,2.694887126e0
6.586839625e0,2.325499773e0,3.845092952e-1,-1.488796353e0,2.787886507e0
6.596872625e0,2.361309767e0,4.133007228e-1,-1.544687867e0,2.851782234e0
6.606905625e0,2.421289444e0,3.941439986e-1,-1.557376027e0,2.905755006e0
6.616938625e0,2.517637014e0,4.553817809e-1,-1.540502191e0,2.986472116e0
6.626971625e0,2.583634377e0,4.873389006e-1,-1.564023376e0,3.059221292e0
6.637004625e0,2.551361799e0,5.353897810e-1,-1.545459867e0,3.030599849e0
6.647037625e0,2.377101660e0,5.266106725e-1,-1.456451297e0,2.837107943e0
6.657070625e0,2.220058680e0,4.253597260e-1,-1.278570294e0,2.596985451e0
6.667103625e0,2.281781197e0,2.871338427e-1,-9.833173752e-1,2.501176590e0
6.677137625e0,2.424301863e0,1.006638259e-1,-7.151607275e-1,2.529590400e0
6.687170625e0,2.504500866e0,-1.014531553e-1,-5.890020728e-1,2.574828300e0
6.697203625e0,2.549021959e0,-2.799493968e-1,-4.899308681e-1,2.610731099e0
6.707236625e0,2.488459826e0,-5.533195138e-1,-3.872719705e-1,2.578482958e0
6.717269625e0,2.266474962e0,-8.928930163e-1,-3.657379150e-1,2.463317055e0
6.727302625e0,2.032734156e0,-8.939760327e-1,-4.303264916e-1,2.261942127e0
6.737335625e0,1.764517069e0,-6.200470328e-1,-5.532516241e-1,1.950401540e0
6.747368625e0,1.519123554e0,-1.801148057e-1,-6.659224629e-1,1.668421542e0
6.757401625e0,1.335105300e0,2.991830707e-1,-7.596462965e-1,1.564953407e0
6.767434625e0,1.262616634e0,5.622226000e-1,-7.854712605e-1,1.589735864e0
6.777467625e0,1.230930924e0,6.026837230e-1,-7.535940409e-1,1.564072437e0
6.787500625e0,1.212807178e0,5.220865607e-1,-6.705966592e-1,1.480937375e0
6.797534625e0,1.130395651e0,3.670210242e-1,-4.889368117e-1,1.285129552e0
6.807567625e0,9.651905298e-1,2.255436927e-1,-2.567185462e-1,1.023898007e0
6.817600625e0,7.177817822e-1,2.401540577e-1,-2.093212120e-2,7.571808317e-1
6.827633625e0,3.799181283e-1,2.201498449e-1,1.028595790e-1,4.509809656e-1
6.837666625e0,1.628966033e-1,3.701172471e-1,1.304493845e-1,4.248989549e-1
6.847699625e0,2.868345976e-1,3.136992157e-1,4.908241630e-1,6.492993479e-1
6.857732625e0,8.424046040e-1,-3.971866369e-1,2.875827074e0,3.022876792e0
6.867765625e0,6.263437867e-1,-8.121812344e-1,3.307657480e0,3.463025109e0
6.877798625e0,5.883671045e-1,-5.206090212e-1,2.798644781e0,2.906823389e0
6.887831625e0,1.015172720e0,3.482836187e-1,1.698919654e0,2.009528582e0
6.897864625e0,1.615588188e0,1.305245042e0,9.637561440e-1,2.289675898e0
6.907897625e0,1.666438460e0,1.731768489e0,4.513763785e-1,2.445358844e0
6.917931625e0,1.605262637e0,1.904507756e0,1.853042096e-1,2.497670030e0
6.927964625e0,1.553477526e0,1.824258327e0,-7.626380771e-2,2.397295776e0
6.937997625e0,1.511920571e0,1.884948850e0,-3.408163786e-1,2.440305674e0
6.948030625e0,1.474226832e0,2.067801476e0,-4.911625683e-1,2.586578505e0
6.958063625e0,1.397498250e0,2.145569563e0,-4.184319079e-1,2.594524112e0
6.968096625e0,1.207095861e0,2.121785879e0,-2.884346545e-1,2.458098917e0
6.978129625e0,1.027011395e0,1.999051571e0,-1.931797564e-1,2.255721172e0
6.988162625e0,8.127419949e-1,1.827460527e0,-1.435468048e-1,2.005185082e0
6.998195625e0,6.172747612e-1,1.610299706e0,-1.302576214e-1,1.729468220e0
7.008228625e0,5.268336535e-1,1.451376081e0,-1.232412383e-1,1.548946296e0
7.018261625e0,5.489115119e-1,1.313016653e0,-1.145966128e-1,1.427742611e0
7.028294625e0,6.603759527e-1,1.220088601e0,-1.255282611e-1,1.393007515e0
7.038328625e0,7.995111942e-1,1.156445742e0,-1.643664688e-1,1.415486220e0
7.048361625e0,9.195977449e-1,1.156893492e0,-2.528596818e-1,1.499333379e0
7.058394625e0,1.024827003e0,1.129942298e0,-2.491182089e-1,1.545671332e0
7.068427625e0,1.082409382e0,1.181054115e0,-8.680486679e-2,1.604379624e0
7.078460625e0,1.078587770e0,1.084382415e0,-1.952888817e-2,1.529581046e0
7.088493625e0,1.069086313e0,1.068698406e0,9.787461907e-2,1.514807337e0
7.098526625e0,1.180827141e0,1.234502554e0,4.414005578e-1,1.764421646e0
7.108559625e0,1.224388361e0,9.745467305e-1,5.959735513e-1,1.674530580e0
7.118592625e0,1.313341737e0,8.261482120e-1,6.266316175e-1,1.673336359e0
7.128625625e0,1.404505610e0,8.942994475e-1,6.284980178e-1,1.779723931e0
7.138658625e0,1.414651394e0,1.042363524e0,6.512502432e-1,1.874002978e0
7.148691625e0,1.327385664e0,1.095525146e0,6.342244148e-1,1.834221539e0
7.158725625e0,1.201140165e0,1.114250898e0,5.889669657e-1,1.741026952e0
7.168758625e0,1.075887442e0,1.157937050e0,5.381499529e-1,1.669717752e0
7.178791625e0,9.753552079e-1,1.278033376e0,4.567728043e-1,1.671325368e0
7.188824625e0,9.444325566e-1,1.369117141e0,3.716436028e-1,1.704275085e0
7.198857625e0,9.591363668e-1,1.395661116e0,3.192677498e-1,1.723294640e0
7.208890625e0,9.673887491e-1,1.389391065e0,3.148797750e-1,1.722033041e0
7.218923625e0,9.131423235e-1,1.307628989e0,3.214332759e-1,1.626973210e0
7.228956625e0,8.577898741e-1,1.225760460e0,2.820171714e-1,1.522440757e0
7.238989625e0,5.762023926e-1,1.103693366e0,2.427749783e-1,1.268498299e0
7.249022625e0,3.376863301e-1,6.903042793e-1,2.177511305e-1,7.987287464e-1
7.259055625e0,3.050988317e-1,4.829827547e-1,1.534869224e-1,5.915368744e-1
7.269088625e0,4.280530810e-1,4.742769301e-1,7.782238722e-2,6.436026496e-1
7.279122625e0,5.595474839e-1,3.425607383e-1,4.278077558e-2,6.574735287e-1
7.289155625e0,6.955556273e-1,1.694375575e-1,2.955284528e-2,7.165054691e-1
7.299188625e0,8.749341369e-1,1.021410823e-1,1.571159810e-2,8.810161173e-1
7.309221625e0,9.552081227e-1,1.399690360e-1,2.403795905e-2,9.657078814e-1
7.319254625e0,8.133836389e-1,1.870278865e-1,4.371392727e-2,8.357531225e-1
7.329287625e0,4.706810117e-1,1.451449692e-1,2.651185170e-2,4.932651976e-1
7.339320625e0,3.750002757e-2,5.994778872e-2,-3.888633102e-2,8.069780778e-2