"Time (s)","Gyroscope x (rad/s)","Gyroscope y (rad/s)","Gyroscope z (rad/s)","Absolute (rad/s)"
1.388441666e-2,3.729243763e-3,1.043295562e-1,-4.433766007e-2,1.134213016e-1
2.391741666e-2,-8.535262197e-2,2.729282379e-1,-2.957527898e-2,2.874884176e-1
3.394941666e-2,-2.114522457e-1,4.256794453e-1,-2.150590159e-2,4.757914944e-1
4.398241667e-2,-2.397956699e-1,4.207268357e-1,-8.351153880e-2,4.914134824e-1
5.401541667e-2,-1.608819366e-1,3.695009053e-1,-1.571380943e-1,4.325578542e-1
6.404841667e-2,-3.965231031e-2,3.067182302e-1,-2.081328034e-1,3.727836401e-1
7.408141666e-2,1.218532324e-1,2.620716691e-1,-2.183359116e-1,3.622158753e-1
8.411441666e-2,3.278274238e-1,2.350184917e-1,-2.440252900e-1,4.714370090e-1
9.414741667e-2,4.528756142e-1,1.618406773e-1,-2.772716880e-1,5.551290982e-1
1.041804167e-1,5.128186345e-1,9.236097336e-2,-2.836447656e-1,5.932687876e-1
1.142134167e-1,5.698369145e-1,8.109766990e-2,-2.392123342e-1,6.233084967e-1
1.242454167e-1,6.190016866e-1,1.386248022e-1,-1.771920919e-1,6.586174620e-1
1.342784167e-1,6.531498432e-1,2.629552782e-1,-1.189586073e-1,7.140737681e-1
1.443114167e-1,6.477130651e-1,3.866103292e-1,-7.974705845e-2,7.585244589e-1
1.543444167e-1,5.823412538e-1,4.978798628e-1,-9.759476036e-2,7.723538249e-1
1.643774167e-1,5.212503672e-1,5.653201938e-1,-1.166980788e-1,7.777578726e-1
1.744104167e-1,4.614291191e-1,5.888013244e-1,-1.530912369e-1,7.635710565e-1
1.844434167e-1,4.161977470e-1,5.590215921e-1,-1.932820529e-1,7.232452261e-1
1.944764167e-1,3.699237108e-1,4.671536684e-1,-2.223355472e-1,6.360103751e-1
2.045094167e-1,3.103410304e-1,3.439732492e-1,-2.420933247e-1,5.227220381e-1
2.145414167e-1,2.332395762e-1,2.087879926e-1,-2.754147947e-1,4.169489596e-1
2.245744167e-1,1.450443864e-1,4.216057807e-2,-3.082486093e-1,3.432675247e-1
2.346074167e-1,3.153141588e-2,-5.369617417e-2,-2.311042994e-1,2.393464153e-1
2.446404167e-1,-1.688097715e-1,9.901564568e-2,1.217830405e-1,2.305036789e-1
2.546734167e-1,-4.489511549e-1,2.046267539e-1,5.493540764e-1,7.383895647e-1
2.647064167e-1,-7.329595089e-1,4.221832454e-1,8.999691010e-1,1.235075996e0
2.747394167e-1,-8.807436228e-1,1.208042741e0,9.782359600e-1,1.786623124e0
2.847724167e-1,-8.507173061e-1,1.458076358e0,8.642150164e-1,1.896463602e0
2.948054167e-1,-6.216610074e-1,8.251585960e-1,5.706912875e-1,1.180270165e0
3.048384167e-1,-3.503974378e-1,5.965318680e-1,4.728445113e-1,8.379800509e-1
3.148704167e-1,-1.218947768e-1,5.351691842e-1,4.975117743e-1,7.407984597e-1
3.249034167e-1,1.958529204e-1,3.264235556e-1,2.723422945e-1,4.680609249e-1
3.349364167e-1,5.602151752e-1,1.961496770e-1,-3.611294329e-1,6.947878853e-1
3.449694167e-1,1.042200565e0,2.829287946e-1,-8.194392323e-1,1.355622136e0
3.550024167e-1,1.413046598e0,3.248970211e-1,-6.497095823e-1,1.588830169e0
3.650354167e-1,1.702955127e0,2.184296101e-1,-4.492131770e-1,1.774700013e0
3.750684167e-1,1.968392611e0,1.642553210e-1,-3.313512504e-1,2.002833725e0
3.851014167e-1,2.323449850e0,1.336134505e-2,-3.167427182e-1,2.344978397e0
3.951344167e-1,2.661422729e0,-1.315950453e-1,-3.193443716e-1,2.683741610e0
4.051664167e-1,2.970631361e0,-1.878468692e-2,-2.160094082e-1,2.978533802e0
4.151994167e-1,3.343894720e0,8.641017228e-2,5.422554538e-2,3.345450497e0
4.252324167e-1,3.707299709e0,4.102195203e-1,1.915124618e-2,3.729975598e0
4.352654167e-1,3.958181143e0,5.763407946e-1,-2.535380721e-1,4.007948131e0
4.452984167e-1,4.168532372e0,5.218414068e-1,-3.324974477e-1,4.214206347e0
4.553314167e-1,4.364017487e0,4.130837023e-1,-4.473971426e-1,4.406296741e0
4.653644167e-1,4.526477814e0,3.538489938e-1,-5.424565673e-1,4.572578008e0
4.753974167e-1,4.634644985e0,2.987191677e-1,-5.397768617e-1,4.675524178e0
4.854304167e-1,4.699516296e0,2.144853473e-1,-5.463014841e-1,4.736021822e0
4.954634167e-1,4.745102406e0,8.650688827e-2,-5.869420767e-1,4.782047813e0
5.054954167e-1,4.769305706e0,-5.883961171e-2,-6.422694325e-1,4.812717428e0
5.155284167e-1,4.760156155e0,-1.867568344e-1,-6.596515775e-1,4.809272807e0
5.255614167e-1,4.711606979e0,-3.413295448e-1,-6.423932910e-1,4.767432782e0
5.355944167e-1,4.609637260e0,-5.223770738e-1,-5.218162537e-1,4.668396479e0
5.456274167e-1,4.455051899e0,-6.510285735e-1,-4.712455571e-1,4.526963442e0
5.556604167e-1,4.274982452e0,-7.302712202e-1,-3.644019365e-1,4.352190230e0
5.656934167e-1,4.033543587e0,-7.762355208e-1,-1.862189919e-1,4.111774916e0
5.757264167e-1,3.761065006e0,-7.887891531e-1,-6.441719830e-2,3.843429183e0
5.857594167e-1,3.438922405e0,-7.627942562e-1,-6.758063566e-3,3.522511612e0
5.957924167e-1,3.076578856e0,-7.464235425e-1,1.993400231e-2,3.165893701e0
6.058244167e-1,2.677816153e0,-7.296781540e-1,2.874896675e-2,2.775600126e0
6.158574167e-1,2.261547804e0,-6.992339492e-1,1.221979037e-2,2.367208463e0
6.258904167e-1,1.846446514e0,-6.179288030e-1,-4.873988032e-2,1.947710531e0
6.359234167e-1,1.434411287e0,-4.523861706e-1,-1.300243437e-1,1.509667287e0
6.459564167e-1,1.024863720e0,-2.498449087e-1,-1.627196670e-1,1.067354586e0
6.559894167e-1,6.107408404e-1,-5.917110667e-2,-1.348680705e-1,6.282475551e-1
6.660224167e-1,1.788315177e-1,5.916699022e-2,-7.917923480e-2,2.043301145e-1
6.760554167e-1,-2.676663399e-1,1.312965751e-1,-4.039961845e-2,3.008590854e-1
6.860884167e-1,-7.176775932e-1,1.438090652e-1,-3.052390181e-2,7.325802916e-1
6.961214167e-1,-1.153181911e0,1.508749574e-1,-4.170891270e-2,1.163757451e0
7.061534167e-1,-1.567395329e0,1.872509271e-1,-5.326639116e-2,1.579439248e0
7.161864167e-1,-1.957481861e0,2.156945467e-1,-5.926276743e-2,1.970221168e0
7.262194167e-1,-2.334626198e0,-6.360036135e-2,-1.074068025e-1,2.337960802e0
7.362524167e-1,-2.678841352e0,-2.844312787e-1,-2.437110990e-1,2.704900598e0
7.462854167e-1,-2.983815193e0,-4.889030159e-1,-4.101093709e-1,3.051289721e0
7.563184167e-1,-3.212901115e0,-4.714808762e-1,-5.096461177e-1,3.287060535e0
7.663514167e-1,-3.345843792e0,-3.541256785e-1,-5.258163214e-1,3.405372003e0
7.763844167e-1,-3.377889633e0,-1.836034656e-1,-4.446208179e-1,3.411969560e0
7.864174167e-1,-3.334205627e0,-6.105658412e-2,-2.849072218e-1,3.346913085e0
7.964494167e-1,-3.237939835e0,5.395335704e-2,-2.683414891e-2,3.238500488e0
8.064824167e-1,-3.106714487e0,2.085322440e-1,2.217031121e-1,3.121588197e0
8.165154167e-1,-2.931296349e0,3.699011505e-1,4.580608010e-1,2.989840270e0
8.265484167e-1,-2.673630714e0,5.217081904e-1,8.221035004e-1,2.845405911e0
8.365814167e-1,-2.362414598e0,3.937257230e-1,9.976508021e-1,2.594480642e0
8.466144167e-1,-2.025336027e0,1.034504175e-1,8.394851685e-1,2.194862948e0
8.566474167e-1,-1.731983304e0,-3.935467452e-2,7.143267393e-1,1.873920395e0
8.666804167e-1,-1.487433791e0,-1.062194183e-1,6.839460731e-1,1.640586505e0
8.767134167e-1,-1.270681739e0,-1.539376825e-1,5.944467783e-1,1.411274553e0
8.867464167e-1,-1.058410645e0,-1.197851747e-1,5.950314403e-1,1.220099994e0
8.967784167e-1,-8.373491168e-1,-1.809903234e-2,6.989748478e-1,1.090892734e0
9.068114167e-1,-5.898373723e-1,-4.332626611e-2,9.062522054e-1,1.082163736e0
9.168444167e-1,-4.793905020e-1,1.194322854e-1,1.167696476e0,1.267909454e0
9.268774167e-1,-4.021490812e-1,-8.661033958e-2,1.188911200e0,1.258067993e0
9.369104167e-1,-3.267696202e-1,2.452337742e-2,1.227314949e0,1.270307744e0
9.469434167e-1,-2.434616983e-1,-3.937198222e-2,1.137667179e0,1.164092076e0
9.569764167e-1,-6.594229490e-2,5.698704347e-2,7.663667798e-1,7.713066514e-1
9.670094167e-1,2.250490785e-1,1.869218946e-1,3.284156024e-1,4.398223395e-1
9.770424167e-1,4.959686995e-1,2.761771977e-1,-4.952345416e-2,5.698345092e-1
9.870754167e-1,6.798757315e-1,3.331090510e-1,-3.150170743e-1,8.200173213e-1
9.971074167e-1,7.661527991e-1,4.385899603e-1,-4.475045502e-1,9.897532962e-1
1.007140417e0,7.701358199e-1,3.878953457e-1,-5.297051668e-1,1.012007680e0
1.017173417e0,7.574040294e-1,3.413446248e-1,-5.974631310e-1,1.023298202e0
1.027206417e0,7.241041064e-1,2.867230177e-1,-5.477402806e-1,9.521324807e-1
1.037239417e0,6.047995687e-1,2.364183068e-1,-3.244744539e-1,7.259199717e-1
1.047272417e0,3.971496522e-1,2.259677351e-1,3.143182024e-2,4.580144352e-1
1.057305417e0,1.541772038e-1,2.425829321e-1,3.162862062e-1,4.273804551e-1
1.067338417e0,-3.264910728e-2,2.611819208e-1,4.184528589e-1,4.943528649e-1
1.077371417e0,-1.275297999e-1,2.621529102e-1,4.564234316e-1,5.415813394e-1
1.087404417e0,-1.559231728e-1,2.373171747e-1,4.159801006e-1,5.036575437e-1
1.097436417e0,-1.350996494e-1,1.616096199e-1,3.167714775e-1,3.804126095e-1
1.107469417e0,-1.277887970e-1,5.310864747e-2,2.177730650e-1,2.580225047e-1
1.117502417e0,-1.416071355e-1,-1.651410945e-2,1.818664670e-1,2.310859331e-1
1.127535417e0,-1.819780618e-1,-5.920249969e-2,1.272331476e-1,2.298025779e-1
1.137568417e0,-2.648010254e-1,-1.259335876e-1,6.322541088e-2,2.999605042e-1
1.147601417e0,-3.891740143e-1,-1.853013188e-1,8.010449260e-2,4.384172920e-1
1.157634417e0,-5.302395225e-1,-2.145894319e-1,1.083883345e-1,5.821946466e-1
1.167667417e0,-6.582156420e-1,-2.209428549e-1,1.153396741e-1,7.038230011e-1
1.177700417e0,-7.706987262e-1,-1.750025302e-1,1.569499671e-1,8.057516393e-1
1.187733417e0,-8.597293496e-1,-9.398691356e-2,2.511490285e-1,9.005797738e-1
1.197765417e0,-9.258590937e-1,3.781771660e-2,3.106445670e-1,9.773153473e-1
1.207798417e0,-9.642331600e-1,1.709381640e-1,3.584505320e-1,1.042809775e0
1.217831417e0,-9.563859105e-1,3.011763096e-1,3.671614826e-1,1.067796204e0
1.227864417e0,-9.153233171e-1,3.684053719e-1,3.441214263e-1,1.044968348e0
1.237897417e0,-8.675624728e-1,3.996775448e-1,3.692643344e-1,1.024091272e0
1.247930417e0,-8.140701652e-1,3.739383817e-1,3.606801331e-1,9.657278631e-1
1.257963417e0,-7.328866124e-1,3.306505680e-1,3.011062741e-1,8.585555154e-1
1.267996417e0,-6.558938622e-1,3.147010505e-1,3.259199262e-1,7.971557614e-1
1.278029417e0,-6.042698026e-1,3.016249239e-1,3.013746142e-1,7.395581432e-1
1.288061417e0,-5.308030248e-1,2.665103376e-1,3.086239100e-1,6.693491831e-1
1.298094417e0,-4.190131128e-1,2.279480249e-1,2.803584337e-1,5.532929984e-1
1.308127417e0,-2.703567743e-1,2.348105013e-1,2.311531752e-1,4.262165499e-1
1.318160417e0,-9.389864653e-2,2.461726069e-1,2.383381277e-1,3.552787235e-1
1.328193417e0,1.033880040e-1,2.680569291e-1,2.346067429e-1,3.709230654e-1
1.338226417e0,2.922466099e-1,3.200439811e-1,2.327515781e-1,4.919446391e-1
1.348259417e0,4.682519436e-1,3.701255023e-1,3.064885437e-1,6.709605038e-1
1.358292417e0,6.430365443e-1,4.133485854e-1,3.496437371e-1,8.405972836e-1
1.368325417e0,8.348305821e-1,4.575946927e-1,3.460103273e-1,1.012945285e0
1.378358417e0,1.071694255e0,4.968672395e-1,2.801647484e-1,1.214041975e0
1.388391417e0,1.358239651e0,5.019677877e-1,5.489188805e-2,1.449068573e0
1.398423417e0,1.637759686e0,3.483113945e-1,-2.256398946e-1,1.689523891e0
1.408456417e0,1.795922637e0,2.296694517e-1,-2.675577402e-1,1.830211277e0
1.418489417e0,1.830270290e0,1.446347237e-1,-3.011894822e-1,1.860517037e0
1.428522417e0,1.765239835e0,1.348705739e-1,-2.661436498e-1,1.790277685e0
1.438555417e0,1.652043223e0,1.847968549e-1,-1.493666917e-1,1.669043768e0
1.448588417e0,1.539366007e0,2.618333995e-1,-1.078363433e-1,1.565194272e0
1.458621417e0,1.439472675e0,2.761247158e-1,-1.098981649e-1,1.469831299e0
1.468654417e0,1.349514842e0,3.028129637e-1,-1.437468976e-1,1.390521187e0
1.478687417e0,1.266533136e0,2.543735206e-1,-2.111496329e-1,1.308967624e0
1.488719417e0,1.180190444e0,9.337364882e-2,-2.972157598e-1,1.220616783e0
1.498752417e0,1.061202526e0,-4.130186513e-2,-3.240058422e-1,1.110331676e0
1.508785417e0,9.118158817e-1,-9.410694987e-2,-3.413550556e-1,9.781551994e-1
1.518818417e0,7.721785903e-1,-1.923373640e-1,-4.132862389e-1,8.966933434e-1
1.528851417e0,6.532965899e-1,-1.159254238e-1,-4.398267567e-1,7.960419047e-1
1.538884417e0,5.968714356e-1,-8.667965233e-2,-2.056976110e-1,6.372443644e-1
1.548917417e0,6.536178589e-1,-7.394602150e-2,-2.320040911e-1,6.975028443e-1
1.558950417e0,7.792224288e-1,-6.999548525e-2,-3.738719821e-1,8.671027739e-1
1.568983417e0,9.059101939e-1,-6.363373250e-2,-2.439025789e-1,9.403249435e-1
1.579016417e0,9.735907316e-1,-9.162514657e-2,-2.079562843e-1,9.997599194e-1
1.589048417e0,9.589016438e-1,-6.714948267e-2,-3.214879930e-1,1.013585687e0
1.599081417e0,8.803629279e-1,-7.095886767e-2,-2.440818995e-1,9.163241890e-1
1.609114417e0,7.960122228e-1,-9.681803733e-2,-1.461834162e-1,8.150943395e-1
1.619147417e0,7.413651943e-1,-1.469075680e-1,-1.179925352e-1,7.649355680e-1
1.629180417e0,7.173847556e-1,-2.168649733e-1,-5.738212541e-2,7.516408800e-1
1.639213417e0,7.046615481e-1,-2.445203066e-1,-6.020931993e-3,7.459050405e-1
1.649246417e0,7.119525671e-1,-2.171588689e-1,-4.922237992e-2,7.459606389e-1
1.659279417e0,7.284364700e-1,-1.718457192e-1,-9.461037070e-2,7.543883379e-1
1.669312417e0,7.125045061e-1,-1.367010474e-1,-5.976053327e-2,7.279568455e-1
1.679345417e0,6.375173330e-1,-1.444383264e-1,-1.963867992e-2,6.539697683e-1
1.689377417e0,5.263999104e-1,-1.981208622e-1,1.264200546e-2,5.625909367e-1
1.699410417e0,4.011484981e-1,-2.725034952e-1,5.980906077e-3,4.849887046e-1
1.709443417e0,2.739849389e-1,-2.906707525e-1,-1.777559146e-2,3.998414745e-1
1.719476417e0,1.668811291e-1,-2.716520727e-1,1.195593737e-2,3.190409132e-1
1.729509417e0,9.748169780e-2,-1.772081107e-1,-1.427298319e-2,2.027538260e-1
1.739542417e0,3.386516869e-2,-3.746538609e-2,-1.086269170e-1,1.197927874e-1
1.749575417e0,5.933343433e-3,6.379207224e-2,-9.518650919e-2,1.147392896e-1
1.759608417e0,6.807368249e-2,8.418282866e-2,-5.217433348e-2,1.201787667e-1
1.769641417e0,1.937845647e-1,7.501389831e-2,-5.879364163e-2,2.159542423e-1
1.779673417e0,3.086378872e-1,7.638463378e-2,-6.415299326e-2,3.243571554e-1
1.789706417e0,3.839064538e-1,1.041332036e-1,-6.899210066e-2,4.037174747e-1
1.799739417e0,3.974278569e-1,1.907069683e-1,-4.395145923e-2,4.430008803e-1
1.809772417e0,3.217122555e-1,3.481177092e-1,-9.010294452e-3,4.740948219e-1
1.819805417e0,1.876599342e-1,4.786522686e-1,1.488861293e-1,5.352488437e-1
1.829838417e0,4.299271107e-2,5.274956822e-1,2.706358731e-1,5.944273242e-1
1.839871417e0,-5.034069717e-2,4.173087478e-1,5.003907681e-1,6.535072284e-1
1.849904417e0,-8.374200761e-2,8.272124082e-2,7.285397053e-1,7.379875539e-1
1.859937417e0,-9.317918122e-2,-3.056901693e-1,5.613680482e-1,6.459589189e-1
1.869970417e0,-1.839852929e-1,-6.661028266e-1,1.321969628e-1,7.035762934e-1
1.880002417e0,-3.334067464e-1,-7.393850088e-1,-2.368732095e-1,8.449610448e-1
1.890035417e0,-5.160399675e-1,-6.434199214e-1,-4.234426320e-1,9.271408231e-1
1.900068417e0,-7.636595964e-1,-3.963656425e-1,-3.747203648e-1,9.384546093e-1
1.910101417e0,-1.082352161e0,-2.482772022e-1,-1.209292561e-1,1.117028046e0
1.920134125e0,-1.413255215e0,-1.788909286e-1,1.278837621e-1,1.430260998e0
1.930167125e0,-1.708325624e0,-1.568769366e-1,1.171296313e-1,1.719507535e0
1.940200125e0,-1.961525321e0,-1.013460308e-1,1.783607602e-1,1.972223406e0
1.950233125e0,-2.106387615e0,3.322408069e-3,2.039586157e-1,2.116241702e0
1.960266125e0,-2.126360416e0,9.149008244e-2,1.339997649e-1,2.132541909e0
1.970298125e0,-2.030614853e0,1.343813390e-1,1.089093536e-1,2.037968663e0
1.980331125e0,-1.833596706e0,9.883799404e-2,1.083522215e-1,1.839452645e0
1.990364125e0,-1.537575841e0,5.455050617e-2,1.021376848e-1,1.541929743e0
2.000397125e0,-1.139197350e0,6.336929649e-2,8.255892992e-2,1.143941540e0
2.010430125e0,-6.531779766e-1,3.152508661e-2,5.730602518e-2,6.564444232e-1
2.020463125e0,-1.306652129e-1,-7.878544182e-2,3.124246746e-2,1.557454188e-1
2.030496125e0,3.435001671e-1,-1.537745148e-1,-6.797876954e-2,3.824396414e-1
2.040529125e0,6.987363100e-1,-1.668186784e-1,-8.061413467e-2,7.228827990e-1
2.050562125e0,9.444688559e-1,-1.297341287e-1,-6.138304994e-2,9.553115945e-1
2.060594125e0,1.087097168e0,-1.157607883e-1,-1.367182881e-1,1.101758913e0
2.070627125e0,1.166144013e0,-1.088648662e-1,-1.368074715e-1,1.179177554e0
2.080660125e0,1.206635475e0,-8.960941434e-2,1.438950375e-2,1.210043832e0
2.090693125e0,1.225842237e0,-8.206688613e-2,3.984776512e-2,1.229232285e0
2.100726125e0,1.210586071e0,-5.542914942e-2,4.989773408e-2,1.212881202e0
2.110759125e0,1.187554002e0,-3.086062893e-2,1.283562928e-1,1.194869124e0
2.120792125e0,1.180440187e0,-4.876166582e-3,2.925422788e-1,1.216159446e0
2.130825125e0,1.108540058e0,6.258145720e-2,1.556480825e-1,1.121161819e0
2.140858125e0,9.593366981e-1,9.310154617e-2,7.208875567e-2,9.665358694e-1
2.150890125e0,7.736430764e-1,9.809263796e-2,1.257953644e-1,7.899178749e-1
2.160923125e0,5.775039196e-1,9.703030437e-2,8.406256139e-2,5.916013619e-1
2.170956125e0,3.650028408e-1,6.338606030e-2,-1.367917955e-1,3.949137396e-1
2.180989125e0,1.578954756e-1,1.918796822e-2,-9.235747159e-2,1.839267841e-1
2.191022125e0,-3.384096920e-2,-2.193501592e-2,-2.343018726e-2,4.664043090e-2
2.201055125e0,-2.472624481e-1,-8.002308756e-2,-9.629241377e-2,2.771545448e-1
2.211088125e0,-5.010902882e-1,-1.134602427e-1,-1.446104944e-1,5.337386052e-1
2.221121125e0,-7.613745928e-1,-1.130842119e-1,-1.474899054e-1,7.837299163e-1
2.231154125e0,-1.014982224e0,-9.455771744e-2,-2.082831711e-1,1.040438348e0
2.241186125e0,-1.253311157e0,-7.413154095e-2,-2.567500472e-1,1.281485438e0
2.251219125e0,-1.444804192e0,-3.021825850e-2,-2.130963951e-1,1.460747195e0
2.261252125e0,-1.584714651e0,1.063596457e-2,-1.604997516e-1,1.592857125e0
2.271285125e0,-1.676560998e0,5.806450918e-2,-1.151425540e-1,1.681513031e0
2.281318125e0,-1.754473329e0,1.347387489e-2,-6.878331304e-2,1.755872817e0
2.291351125e0,-1.855420232e0,-1.943889447e-2,-1.126899943e-1,1.858940866e0
2.301384125e0,-1.975901961e0,-7.020646334e-2,-5.490445718e-2,1.977911021e0
2.311417125e0,-2.088504553e0,-1.125223860e-1,5.006743222e-2,2.092132716e0
2.321450125e0,-2.175848484e0,-1.529518366e-1,1.020949408e-1,2.183605795e0
2.331482125e0,-2.220083237e0,-1.701883674e-1,1.900018901e-1,2.234688877e0
2.341515125e0,-2.218608618e0,-1.183342338e-1,2.261324674e-1,2.233240489e0
2.351548125e0,-2.186406612e0,-3.419924527e-2,1.806862354e-1,2.194126473e0
2.361581125e0,-2.123228073e0,1.395017467e-2,1.365262270e-1,2.127658682e0
2.371614125e0,-2.003827572e0,4.548290372e-2,9.014616907e-2,2.006369847e0
2.381647125e0,-1.830142617e0,5.761520192e-2,8.840286732e-2,1.833182091e0
2.391680125e0,-1.587638974e0,6.307918578e-2,1.423342824e-1,1.595254069e0
2.401713125e0,-1.271015167e0,5.502206087e-2,2.230903804e-1,1.291617707e0
2.411745125e0,-8.976391554e-1,7.256159093e-3,2.680642307e-1,9.368389066e-1
2.421778125e0,-4.798269868e-1,-6.201133132e-2,2.950572371e-1,5.666904937e-1
2.431811125e0,-1.800053008e-2,-1.252619475e-1,3.200101256e-1,3.441236044e-1
2.441844125e0,4.912493825e-1,-1.822176427e-1,3.141607642e-1,6.109224262e-1
2.451877125e0,1.048867941e0,-2.352366596e-1,2.771622837e-1,1.110080707e0
2.461910125e0,1.634063840e0,-3.027025163e-1,1.378557682e-1,1.667572385e0
2.471943125e0,2.252458096e0,-3.675181866e-1,-4.274959862e-2,2.282644216e0
2.481976125e0,2.933442831e0,-4.231324494e-1,-1.280133575e-1,2.966566253e0
2.492009125e0,3.673911810e0,-4.333829284e-1,-6.030716747e-2,3.699876444e0
2.502041125e0,4.481098175e0,-4.658913314e-1,1.524804682e-1,4.507831616e0
2.512074125e0,5.336208820e0,-5.300991535e-1,3.910173178e-1,5.376711284e0
2.522107125e0,6.216785431e0,-5.945990086e-1,3.685317039e-1,6.256019876e0
2.532140125e0,7.091247082e0,-6.890218854e-1,1.523559839e-1,7.126271724e0
2.542173125e0,7.971540928e0,-8.182728291e-1,6.916042417e-2,8.013726870e0
2.552206125e0,8.865830421e0,-9.595372677e-1,2.872964740e-2,8.917650264e0
2.562239125e0,9.781755447e0,-1.066637635e0,-3.281334415e-2,9.839793300e0
2.572272125e0,1.074727345e1,-1.084937453e0,-6.075879931e-2,1.080206774e1
2.582304125e0,1.178662586e1,-1.032506704e0,-2.434673160e-2,1.183178820e1
2.592337125e0,1.291740704e1,-8.915829659e-1,5.266450718e-2,1.294824692e1
2.602370125e0,1.413788319e1,-7.288897038e-1,2.336928844e-1,1.415858869e1
2.612403125e0,1.530802345e1,-8.858679533e-1,3.808604181e-1,1.533836363e1
2.622436125e0,1.638250923e1,-7.604506016e-1,5.038593411e-1,1.640788737e1
2.632469125e0,1.765308952e1,-9.137470722e-1,7.392160892e-1,1.769217182e1
2.642502125e0,1.918293571e1,-1.028355598e0,7.452958226e-1,1.922493183e1
2.652535125e0,2.052746391e1,-6.449485421e-1,7.386292219e-1,2.055087118e1
2.662567125e0,2.178358269e1,-1.175374150e0,1.544540644e0,2.186987848e1
2.672600125e0,2.254140663e1,-2.271540880e0,2.349405050e0,2.277706335e1
2.682633125e0,2.289826965e1,-3.353776932e0,3.480090618e0,2.340276914e1
2.692666125e0,2.298637962e1,-2.715574265e0,4.128977776e0,2.351162371e1
2.702699125e0,2.312498093e1,-1.872267485e0,4.199544430e0,2.357766532e1
2.712732125e0,2.313888550e1,-9.297022820e-1,4.418670177e0,2.357534760e1
2.722765125e0,2.316809464e1,-4.487602040e-2,4.447021484e0,2.359107083e1
2.732798125e0,2.311649323e1,8.974372149e-1,4.472346783e0,2.356224816e1
2.742831125e0,2.305482101e1,1.859501123e0,4.502455711e0,2.356384145e1
2.752863125e0,2.293935013e1,2.820222855e0,4.601776123e0,2.356573327e1
2.762896125e0,2.277692986e1,3.751800060e0,4.684224129e0,2.355433066e1
2.772929125e0,2.256944084e1,4.654654980e0,4.769630909e0,2.353284623e1
2.782962125e0,2.230416489e1,5.532574654e0,4.841548443e0,2.348458526e1
2.792995125e0,2.199542046e1,6.379212856e0,4.846399784e0,2.340898265e1
2.803028125e0,2.163189507e1,7.251219273e0,4.774039745e0,2.330902230e1
2.813061125e0,2.123684692e1,8.166062355e0,4.685132027e0,2.323012492e1
2.823094125e0,2.079822540e1,9.106255531e0,4.642493725e0,2.317418429e1
2.833126125e0,2.032190514e1,1.003120708e1,4.659725189e0,2.313693979e1
2.843159125e0,1.979939651e1,1.091589451e1,4.680739880e0,2.308857252e1
2.853192125e0,1.923039436e1,1.177253056e1,4.670472622e0,2.302637309e1
2.863225125e0,1.862925911e1,1.260436153e1,4.640068054e0,2.296626779e1
2.873258125e0,1.799172020e1,1.342403221e1,4.626751423e0,2.291971783e1
2.883291125e0,1.731460762e1,1.420409775e1,4.621123791e0,2.286715581e1
2.893324125e0,1.660331345e1,1.496066666e1,4.614762306e0,2.282077114e1
2.903357125e0,1.585554790e1,1.568266773e1,4.610283852e0,2.277277286e1
2.913389125e0,1.507898617e1,1.637147331e1,4.606735229e0,2.272934165e1
2.923422625e0,1.427028465e1,1.702140236e1,4.607447624e0,2.268474677e1
2.933455625e0,1.343209743e1,1.763602448e1,4.607071877e0,2.264234334e1
2.943488625e0,1.256206322e1,1.820894814e1,4.610786915e0,2.259713655e1
2.953521625e0,1.167233276e1,1.874192810e1,4.620610714e0,2.255777614e1
2.963554625e0,1.075597191e1,1.923200798e1,4.629735947e0,2.251656096e1
2.973587625e0,9.815445900e0,1.968035698e1,4.639772892e0,2.247636362e1
2.983620625e0,8.850017548e0,2.008411789e1,4.652266502e0,2.243519970e1
2.993652625e0,7.869745731e0,2.044109726e1,4.663837433e0,2.239470327e1
3.003685625e0,6.870964050e0,2.075621414e1,4.678472042e0,2.235886118e1
3.013718625e0,5.858901501e0,2.102684212e1,4.689976692e0,2.232600944e1
3.023751625e0,4.835920811e0,2.124707031e1,4.704020023e0,2.229241870e1
3.033784625e0,3.805356264e0,2.141118622e1,4.717410088e0,2.225249625e1
3.043817625e0,2.772003412e0,2.152847481e1,4.726291656e0,2.221479379e1
3.053850625e0,1.735194921e0,2.159754753e1,4.733571529e0,2.217817982e1
3.063883625e0,6.984577775e-1,2.160591316e1,4.746997833e0,2.213226864e1
3.073915625e0,-3.306759894e-1,2.156653976e1,4.750776291e0,2.208607841e1
3.083948625e0,-1.362987041e0,2.147512245e1,4.756779671e0,2.203782137e1
3.093981625e0,-2.381368637e0,2.133200455e1,4.767113209e0,2.198751243e1
3.104014625e0,-3.402516365e0,2.114440727e1,4.773354530e0,2.194192312e1
3.114047625e0,-4.412604809e0,2.091703224e1,4.781782150e0,2.190567871e1
3.124080625e0,-5.411589622e0,2.064784813e1,4.790275097e0,2.187614386e1
3.134113625e0,-6.400575161e0,2.033432198e1,4.796257019e0,2.185076873e1
3.144146625e0,-7.376708031e0,1.997368431e1,4.749310017e0,2.181558690e1
3.154178625e0,-8.313752174e0,1.955337906e1,4.700739384e0,2.176120536e1
3.164211625e0,-9.221264839e0,1.908806992e1,4.760303974e0,2.172663417e1
3.174244625e0,-1.010771561e1,1.860318565e1,4.821133614e0,2.171376892e1
3.184277625e0,-1.097207832e1,1.807990456e1,4.822573662e0,2.169162668e1
3.194310625e0,-1.180231571e1,1.751250076e1,4.812625408e0,2.165972536e1
3.204343625e0,-1.259577847e1,1.689656639e1,4.801805973e0,2.161492382e1
3.214376625e0,-1.335206890e1,1.624395752e1,4.810172081e0,2.157038839e1
3.224409625e0,-1.407183743e1,1.556200314e1,4.829031944e0,2.152933115e1
3.234442625e0,-1.475726509e1,1.485362911e1,4.839156151e0,2.149010477e1
3.244474625e0,-1.540651417e1,1.411516285e1,4.844396591e0,2.144916500e1
3.254507625e0,-1.602357292e1,1.336227703e1,4.855648518e0,2.142154661e1
3.264540625e0,-1.661849976e1,1.258592701e1,4.868213177e0,2.140746581e1
3.274573625e0,-1.718442535e1,1.179209232e1,4.880187511e0,2.140500283e1
3.284606625e0,-1.771343613e1,1.098487091e1,4.893768311e0,2.140986167e1
3.294639625e0,-1.821426201e1,1.016745472e1,4.910103798e0,2.143001622e1
3.304672625e0,-1.866503143e1,9.333600044e0,4.925424576e0,2.144199840e1
3.314704625e0,-1.906638718e1,8.487711906e0,4.947154999e0,2.144860639e1
3.324737625e0,-1.941084099e1,7.625685215e0,4.953113079e0,2.143513826e1
3.334770625e0,-1.971359825e1,6.747944355e0,4.970600605e0,2.142119463e1
3.344803625e0,-1.996874428e1,5.847136497e0,4.988329411e0,2.139680312e1
3.354836625e0,-2.017750549e1,4.933471680e0,4.996760368e0,2.136442101e1
3.364869625e0,-2.032740593e1,3.997280121e0,5.005711555e0,2.131287940e1
3.374902625e0,-2.041511154e1,3.047128201e0,5.017228603e0,2.124227748e1
3.384935625e0,-2.044583321e1,2.097819805e0,5.018223286e0,2.115692578e1
3.394967625e0,-2.046054459e1,1.151316047e0,5.026435852e0,2.110034291e1
3.405000625e0,-2.044148636e1,2.012945861e-1,5.033416271e0,2.105303217e1
3.415033625e0,-2.039864159e1,-7.586950064e-1,5.034059048e0,2.102431800e1
3.425066625e0,-2.033196259e1,-1.711149335e0,5.036169052e0,2.101617790e1
3.435099625e0,-2.023815727e1,-2.655827045e0,5.036765099e0,2.102392517e1
3.445132625e0,-2.010051727e1,-3.584182739e0,5.035783291e0,2.102941449e1
3.455165625e0,-1.991992950e1,-4.496861458e0,5.034510136e0,2.103263290e1
3.465198625e0,-1.969385910e1,-5.391130447e0,5.039597034e0,2.103116526e1
3.475230625e0,-1.942515373e1,-6.260764122e0,5.040847301e0,2.102246195e1
3.485263625e0,-1.909194565e1,-7.102018356e0,5.062117577e0,2.098966621e1
3.495296625e0,-1.867977142e1,-7.877286911e0,5.177998066e0,2.092360326e1
3.505329625e0,-1.820033264e1,-8.604525566e0,5.122366905e0,2.077326674e1
3.515362625e0,-1.768800545e1,-9.364486694e0,5.050318718e0,2.064133879e1
3.525395625e0,-1.713818359e1,-1.011816788e1,5.071176529e0,2.053804980e1
3.535428625e0,-1.655194473e1,-1.084713650e1,5.083802223e0,2.043213865e1
3.545461625e0,-1.534234142e1,-1.115244102e1,4.586608887e0,1.951413237e1
3.555493625e0,-4.837186337e0,-7.129663944e0,-2.133533001e0,8.875947424e0
3.565526625e0,-6.264955521e0,2.173787594e0,-8.479235649e0,1.076440697e1
3.575559625e0,-9.304262161e0,-5.551911592e-1,-1.009828186e1,1.374237345e1
3.585592625e0,-5.825944424e0,-2.776176691e0,-5.521823883e0,8.493487178e0
3.595625625e0,-5.959819794e0,-5.823945522e0,-3.502902985e0,9.039254546e0
3.605658625e0,-4.423277378e0,-4.553525925e0,-5.702868462e0,8.533621142e0
3.615691625e0,-5.117742062e0,-3.376175404e0,-8.088935852e0,1.014991268e1
3.625723625e0,-5.488522530e0,-2.892317772e0,-9.459237099e0,1.131223003e1
3.635756625e0,-5.674063683e0,-2.502552271e0,-9.667304993e0,1.148540606e1
3.645789625e0,-5.898588657e0,-1.946968317e0,-9.501141548e0,1.135146354e1
3.655822625e0,-5.992694855e0,-1.394158244e0,-9.575456619e0,1.138180295e1
3.665855625e0,-6.096312523e0,-8.261958361e-1,-9.499913216e0,1.131794933e1
3.675888625e0,-6.134062290e0,-2.695475519e-1,-9.527149200e0,1.133428198e1
3.685921625e0,-6.125218391e0,2.864280939e-1,-9.498568535e0,1.130588986e1
3.695954625e0,-6.070616245e0,8.255342841e-1,-9.485988617e0,1.129238099e1
3.705986625e0,-5.950584888e0,1.362260580e0,-9.499902725e0,1.129218164e1
3.716019625e0,-5.796578407e0,1.885008335e0,-9.467417717e0,1.125991012e1
3.726052625e0,-5.579635143e0,2.382455111e0,-9.482336044e0,1.125713629e1
3.736085625e0,-5.328181267e0,2.867880583e0,-9.463884354e0,1.123295872e1
3.746118625e0,-5.022356510e0,3.316617966e0,-9.468695641e0,1.121963532e1
3.756151625e0,-4.681785583e0,3.744014263e0,-9.462157249e0,1.120130255e1
3.766184625e0,-4.303965092e0,4.136878014e0,-9.461945534e0,1.118777406e1
3.776216625e0,-3.888740540e0,4.498651505e0,-9.462079048e0,1.117546904e1
3.786249625e0,-3.447790384e0,4.812891006e0,-9.464109421e0,1.116335727e1
3.796282625e0,-2.976595402e0,5.097297192e0,-9.463790894e0,1.115373915e1
3.806315625e0,-2.483150959e0,5.327785969e0,-9.463156700e0,1.114013809e1
3.816348625e0,-1.971385956e0,5.519447327e0,-9.465602875e0,1.113320705e1
3.826381625e0,-1.444691539e0,5.661751747e0,-9.467628479e0,1.112558113e1
3.836414625e0,-9.082370400e-1,5.761021137e0,-9.472709656e0,1.112413984e1
3.846447625e0,-3.650965393e-1,5.808917999e0,-9.475605011e0,1.112042779e1
3.856479625e0,1.778894067e-1,5.809720516e0,-9.482975960e0,1.112255952e1
3.866512625e0,7.231860161e-1,5.759264469e0,-9.484538078e0,1.111973866e1
3.876545625e0,1.255434513e0,5.658117294e0,-9.488536835e0,1.111857628e1
3.886578625e0,1.778733969e0,5.513329029e0,-9.489630699e0,1.111817352e1
3.896611625e0,2.282150269e0,5.320187569e0,-9.491347313e0,1.111747631e1
3.906644625e0,2.764210463e0,5.084386826e0,-9.492791176e0,1.111777555e1
3.916677625e0,3.225451469e0,4.805452347e0,-9.489915848e0,1.111550324e1
3.926710500e0,3.655092239e0,4.483778000e0,-9.488349915e0,1.111272912e1
3.936742500e0,4.055851936e0,4.126533985e0,-9.484951019e0,1.111046864e1
3.946775500e0,4.416440487e0,3.737904310e0,-9.480727196e0,1.110680257e1
3.956808500e0,4.740172386e0,3.316095591e0,-9.475255966e0,1.110163050e1
3.966841500e0,5.024976730e0,2.867886543e0,-9.464080811e0,1.109251955e1
3.976874500e0,5.261456966e0,2.399585962e0,-9.458473206e0,1.108619220e1
3.986907500e0,5.453987598e0,1.907746434e0,-9.446955681e0,1.107386332e1
3.996940500e0,5.599420071e0,1.405778170e0,-9.435419083e0,1.106150309e1
4.006973500e0,5.696045876e0,8.905380368e-1,-9.422750473e0,1.104654802e1
4.017005500e0,5.742275238e0,3.716357648e-1,-9.410641670e0,1.103050383e1
4.027038500e0,5.741978645e0,-1.469341666e-1,-9.393859863e0,1.101074528e1
4.037071500e0,5.692357540e0,-6.622282267e-1,-9.379663467e0,1.099179546e1
4.047104500e0,5.593511581e0,-1.171616673e0,-9.363109589e0,1.096940648e1
4.057137500e0,5.449071407e0,-1.668243289e0,-9.348580360e0,1.094857843e1
4.067170500e0,5.260951996e0,-2.147936821e0,-9.335897446e0,1.092932887e1
4.077203500e0,5.027581692e0,-2.611600399e0,-9.318667412e0,1.090571394e1
4.087235500e0,4.754375458e0,-3.047488928e0,-9.304861069e0,1.088447124e1
4.097268500e0,4.442069530e0,-3.460775614e0,-9.287668228e0,1.086138714e1
4.107301500e0,4.090990543e0,-3.843416214e0,-9.274233818e0,1.084063950e1
4.117334500e0,3.699816227e0,-4.190373898e0,-9.265619278e0,1.082125566e1
4.127367500e0,2.399731636e0,-4.103114128e0,-9.585180283e0,1.069906251e1
4.137400500e0,-1.865897775e0,-2.995459318e0,-1.227702808e1,1.277418372e1
4.147433500e0,-6.536935329e0,-1.302338481e0,-1.643309975e1,1.773342540e1
4.157466500e0,-6.655128956e0,6.012257338e-1,-1.664705086e1,1.793813023e1
4.167498500e0,-9.068338394e0,1.757740498e0,-1.792002487e1,2.016064742e1
4.177531500e0,-1.275562000e1,2.180616379e0,-1.864303017e1,2.269412927e1
4.187564500e0,-1.530428600e1,-5.544344902e0,-1.603724098e1,2.285068990e1
4.197597500e0,-1.583196449e1,-1.544311714e1,-1.020190430e1,2.435610433e1
4.207630500e0,-1.716264725e1,-1.568343925e1,-6.860811234e0,2.424040961e1
4.217663500e0,-2.013829231e1,-1.522429085e1,-4.339259624e0,2.561560117e1
4.227696500e0,-2.189831543e1,-1.185968971e1,-2.083301306e0,2.499057028e1
4.237728500e0,-2.257362747e1,-6.622451305e0,-1.216650963e0,2.355643772e1
4.247761500e0,-1.503773594e1,-3.908465385e0,-2.248141050e0,1.569916374e1
4.257794500e0,-7.083620548e0,-3.237014294e0,-3.195331335e0,8.418199567e0
4.267827500e0,-4.056209087e0,-2.927406073e0,-2.868866205e0,5.766535509e0
4.277860500e0,-3.232871771e0,-2.759054184e0,-2.380224466e0,4.871273795e0
4.287893500e0,-3.115701199e0,-2.631232977e0,-2.289972067e0,4.677066709e0
4.297926500e0,-3.155271769e0,-2.541490078e0,-2.152395487e0,4.587779210e0
4.307959500e0,-3.247431517e0,-2.484564066e0,-2.188272953e0,4.637608066e0
4.317991500e0,-3.307728529e0,-2.414430618e0,-2.157722950e0,4.628856399e0
4.328024500e0,-3.350271463e0,-2.347747326e0,-2.146189690e0,4.619779926e0
4.338057500e0,-3.398716688e0,-2.273128986e0,-2.168379307e0,4.628202603e0
4.348090500e0,-3.443969727e0,-2.199084044e0,-2.151031256e0,4.617773660e0
4.358123500e0,-3.482372046e0,-2.126698971e0,-2.153178930e0,4.613669156e0
4.368156500e0,-3.532321692e0,-2.051079035e0,-2.149924994e0,4.615885529e0
4.378189500e0,-3.557833672e0,3.397656977e-1,-2.600687027e0,4.420089838e0
4.388221500e0,-3.579709291e0,4.724672735e-1,-2.950586796e0,4.662993285e0
4.398254500e0,-3.557452917e0,5.718829632e-1,-2.762183666e0,4.540063875e0
4.408287500e0,-3.526539087e0,6.585328579e-1,-2.734399319e0,4.510774112e0
4.418320500e0,-3.526381016e0,7.329158783e-1,-2.809890509e0,4.568152080e0
4.428353500e0,-3.486938715e0,8.077406287e-1,-2.775256157e0,4.529153703e0
4.438386500e0,-3.470093727e0,8.791792989e-1,-2.742986679e0,4.509820688e0
4.448419500e0,-3.438434839e0,9.553110600e-1,-2.798205376e0,4.534909777e0
4.458452500e0,-3.416427612e0,1.043263316e0,-2.755601645e0,4.511509326e0
4.468484500e0,-3.313817978e0,1.161684155e0,-3.114692450e0,4.693847965e0
4.478517500e0,-7.792495251e0,-8.857350945e-1,-3.988569498e0,8.798647369e0
4.488550500e0,-7.172232628e0,7.625173926e-1,-2.303760767e0,7.571635709e0
4.498583500e0,-8.022663116e0,-3.837389946e-1,-1.942218304e0,8.263328085e0
4.508616500e0,-7.566817284e0,-6.577588320e-1,-2.828099012e0,8.104783434e0
4.518649500e0,-7.965129375e0,-7.992821932e-1,-2.260020494e0,8.318042476e0
4.528682500e0,-8.041549683e0,-3.421770334e0,-1.554974556e0,8.876540959e0
4.538714500e0,-8.227371216e0,-3.712240458e0,-1.038785458e0,9.085672323e0
4.548747500e0,-8.217947006e0,-3.647766113e0,-7.803885341e-1,9.024957445e0
4.558780500e0,-8.299769402e0,-3.694012403e0,-7.218328118e-1,9.113338706e0
4.568813500e0,-8.260601997e0,9.426472187e-1,-6.064380407e-1,8.336299913e0
4.578846500e0,-8.605985641e0,-6.534955502e-1,-1.036110613e-2,8.630767790e0
4.588879500e0,-8.865894318e0,-1.051732972e-1,3.328673542e-1,8.872764177e0
4.598912500e0,-9.092621803e0,1.030186787e-1,5.828520060e-1,9.111865921e0
4.608945500e0,-9.145492554e0,-8.552511334e-1,7.137351632e-1,9.213083438e0
4.618977500e0,-9.142484665e0,-1.036548495e0,7.251958847e-1,9.229591958e0
4.629010500e0,-9.139870644e0,-1.093389153e0,6.904163361e-1,9.230894320e0
4.639043500e0,-9.125309944e0,-1.174486637e0,6.299645901e-1,9.222123173e0
4.649076500e0,-9.119692802e0,-1.241773009e0,6.512975693e-1,9.226862172e0
4.659109500e0,-9.113012314e0,-1.661827087e0,6.381468773e-1,9.285251431e0
4.669142500e0,-9.125457764e0,-3.145138264e0,6.123054028e-1,9.671648877e0
4.679175500e0,-9.123591423e0,-4.553081036e0,5.302805901e-1,1.021037046e1
4.689207500e0,-9.088391304e0,-5.211749077e0,4.020528793e-1,1.048440897e1
4.699240500e0,-9.029709816e0,-4.794678211e0,7.225989103e-1,1.024923157e1
4.709273500e0,5.385663509e0,-1.291051865e1,2.294759274e0,1.417578158e1
4.719306500e0,8.019707680e0,3.790542364e0,3.470275402e0,9.525058218e0
4.729339500e0,8.418506622e0,-3.875838518e0,4.117963791e0,1.014154839e1
4.739372500e0,8.472184181e0,-4.887393475e0,4.248202801e0,1.066357102e1
4.749405500e0,8.683391571e0,-4.213588238e0,3.828743935e0,1.038339516e1
4.759437500e0,6.513411999e0,-6.409826279e0,3.682670116e0,9.852536119e0
4.769470500e0,-8.074429512e0,-6.423717499e0,1.088281512e0,1.037520675e1
4.779503500e0,4.559838772e0,-2.228095770e0,-9.153233767e-1,5.156971715e0
4.789536500e0,3.790662766e0,-7.739765048e-1,4.680396914e-1,3.897079032e0
4.799569500e0,3.270365477e0,4.874349535e-1,5.236967802e-1,3.347706902e0
4.809602500e0,1.887169480e0,4.193674922e-1,2.379805893e-1,1.947796833e0
4.819635500e0,9.133560658e-1,6.147328615e-1,1.244424358e-1,1.107971892e0
4.829668500e0,-8.647903800e-2,8.806419969e-1,5.882081985e-1,1.062543098e0
4.839700500e0,-1.012425423e0,1.136546850e0,6.168180108e-1,1.642318007e0
4.849733500e0,-2.020826578e0,1.381208301e0,6.962374449e-1,2.544842433e0
4.859766500e0,-2.945661783e0,1.610541105e0,6.418271065e-1,3.417997663e0
4.869799500e0,-3.980956793e0,1.887851357e0,6.461619735e-1,4.453035485e0
4.879832500e0,-3.565792561e0,1.562274098e0,3.351977468e-1,3.907420437e0
4.889865500e0,8.438936472e-1,5.180950463e-2,-8.673485368e-2,8.499197888e-1
4.899898500e0,8.731200695e-1,-1.963541508e-1,-3.017875850e-1,9.444412924e-1
4.909931500e0,8.232545257e-1,-2.529913485e-1,-2.090568542e-1,8.862603482e-1
4.919963500e0,8.484380245e-1,-2.877992690e-1,-2.606595159e-1,9.330696029e-1
4.929996500e0,7.876151800e-1,-2.990913391e-1,-2.290941328e-1,8.730850031e-1
4.940029500e0,-1.583754897e0,-7.957670093e-2,-4.211415648e-1,1.640723085e0
4.950062500e0,-2.172776222e0,-1.915330589e-1,-5.073028803e-1,2.239419040e0
4.960095500e0,-1.815852046e0,-1.790094972e-1,-4.586982131e-1,1.881426880e0
4.970128500e0,-2.555682957e-1,3.159115613e-1,-4.018578231e-1,5.714936380e-1
4.980161500e0,3.377244473e-1,4.485355914e-1,-3.628189862e-1,6.684905353e-1
4.990193500e0,5.513206720e-1,2.926298678e-1,-2.539295256e-1,6.738448834e-1
5.000226500e0,7.137972116e-1,-6.288401783e-2,-2.334207892e-1,7.536220033e-1
5.010259500e0,6.918119788e-1,-4.252025485e-1,-2.463184893e-1,8.485716348e-1
5.020292500e0,6.727023721e-1,-5.646625161e-1,-2.444729954e-1,9.116684068e-1
5.030325500e0,6.506689787e-1,-6.158487797e-1,-2.306290716e-1,9.251105923e-1
5.040358500e0,4.178325236e-1,-4.816277921e-1,-2.511408925e-1,6.852890600e-1
5.050391500e0,-1.860093921e-1,-1.762093008e-1,-1.907859296e-1,3.194502818e-1
5.060423500e0,-3.565494716e-1,-3.913372383e-2,-1.182084009e-1,3.776667845e-1
5.070456500e0,-4.225433767e-1,9.946276993e-2,-9.199997038e-2,4.437338643e-1
5.080489500e0,-4.217766523e-1,2.099988908e-1,-5.392299965e-2,4.742391469e-1
5.090522500e0,-3.477775455e-1,2.271978557e-1,-2.997692302e-2,4.164933405e-1
5.100555500e0,-2.067604065e-1,2.173869014e-1,-6.313956343e-3,3.000779842e-1
5.110588500e0,-1.792949997e-2,2.054671347e-1,1.507602073e-2,2.067982031e-1
5.120621500e0,6.583394855e-2,1.161264330e-1,3.142124414e-2,1.371377111e-1
5.130654500e0,8.820156753e-2,-2.501977980e-2,3.746795282e-2,9.904217983e-2
5.140686500e0,1.067384779e-1,-1.433322728e-1,4.031424224e-2,1.832006583e-1
5.150719500e0,1.323245466e-1,-2.087397724e-1,3.100675903e-2,2.490853214e-1
5.160752500e0,1.499801278e-1,-2.264475226e-1,2.252088860e-2,2.725430419e-1
5.170785500e0,1.457379907e-1,-2.020612359e-1,2.270517871e-2,2.501676041e-1
5.180818500e0,1.130177602e-1,-1.441172212e-1,2.385869995e-2,1.846944102e-1
5.190851500e0,5.816463381e-2,-5.261447281e-2,2.957384661e-2,8.382135634e-2
5.200884500e0,-8.064897731e-3,4.635831341e-2,2.513912693e-2,5.334895969e-2
5.210916500e0,-5.272930488e-2,1.104587391e-1,1.497810148e-2,1.233120276e-1
5.220949500e0,-7.075057179e-2,1.367786378e-1,-1.183427405e-3,1.539981807e-1
5.230982500e0,-8.398435265e-2,1.214233860e-1,-1.641830616e-2,1.485482108e-1
5.241015500e0,-8.676249534e-2,7.575739175e-2,-2.776076272e-2,1.184802640e-1
5.251048500e0,-7.160139084e-2,1.828024909e-2,-3.377657756e-2,8.125136226e-2
5.261081500e0,-3.678014129e-2,-2.243383415e-2,-3.487032279e-2,5.542558182e-2
5.271114500e0,1.499516983e-2,-4.472742230e-2,-2.908513509e-2,5.541969421e-2
5.281147500e0,5.051843077e-2,-5.644835904e-2,-1.687940583e-2,7.761084607e-2
5.291179500e0,7.129907608e-2,-6.551030278e-2,-3.675454296e-3,9.689513396e-2
5.301212500e0,6.935430318e-2,-4.683575034e-2,6.578877103e-3,8.394574738e-2
5.311245500e0,5.367068201e-2,-1.433852687e-2,1.115765050e-2,5.666240928e-2
5.321278500e0,2.306417003e-2,-3.561974503e-3,1.902133599e-2,3.010738820e-2
5.331311500e0,-3.931493964e-3,2.075694874e-2,1.974758133e-2,2.891841168e-2
5.341344500e0,-2.759157307e-2,5.056653917e-2,1.524088159e-2,5.958652750e-2
5.351377500e0,-4.431143031e-2,3.618360311e-2,6.293193437e-3,5.755310828e-2
5.361409500e0,-4.999381676e-2,2.553739119e-3,4.720559809e-4,5.006122387e-2
5.371442500e0,-3.008695506e-2,-1.541936072e-3,-4.064905457e-3,3.039943894e-2
5.381475500e0,-5.113294348e-3,3.013735637e-3,-9.800387546e-3,1.145757294e-2
5.391508500e0,1.372404303e-2,-1.113324240e-2,-1.142092049e-2,2.104128961e-2
5.401541500e0,2.571064234e-2,-1.765768789e-2,-4.525026307e-3,3.151677227e-2
5.411574500e0,2.189273387e-2,-1.650986448e-2,-4.194794223e-3,2.773920907e-2
5.421607500e0,1.260441449e-2,-1.127847284e-2,-1.713710604e-3,1.700035347e-2
5.431639500e0,1.475064317e-3,-4.160375334e-3,-1.986152260e-3,4.840386189e-3
5.441672500e0,-8.154058829e-3,5.798020866e-3,3.782208776e-3,1.069629957e-2
5.451705500e0,-1.485403813e-2,9.644158185e-3,6.247230805e-3,1.877977978e-2
5.461738500e0,-1.019446086e-2,1.273645461e-2,6.045968272e-3,1.739821946e-2
5.471771500e0,-1.796182478e-3,7.072710898e-3,1.644295640e-3,7.480188439e-3
5.481804500e0,9.974734858e-4,5.133450031e-4,9.438843699e-4,1.466081222e-3
5.491837500e0,3.327206708e-3,-5.965859629e-3,-4.047412425e-3,7.939983182e-3
5.501870500e0,3.700693138e-3,-7.887496613e-3,-4.152534530e-3,9.651490845e-3
5.511902500e0,4.575541243e-3,-7.865126245e-3,-2.669952810e-3,9.482849599e-3
5.521935500e0,4.839126952e-3,-3.834201256e-3,-7.931748405e-4,6.224738971e-3
5.531968500e0,7.218798273e-4,-1.063714735e-3,3.008753993e-3,3.271880210e-3
5.542001500e0,-6.003190298e-3,3.978530411e-3,3.856400959e-3,8.169383473e-3
5.552034500e0,-3.568262327e-3,7.424927317e-3,2.746129176e-3,8.683505464e-3
5.562067500e0,6.670965813e-4,6.207931321e-3,1.852007583e-3,6.512554124e-3
5.572100500e0,-3.675414482e-4,9.943847544e-5,1.373437583e-3,1.425238759e-3
5.582132500e0,5.541563733e-4,-4.906205926e-3,-2.816341817e-3,5.684164592e-3
5.592165500e0,8.606862975e-4,-4.414586350e-3,-2.970006317e-3,5.389832193e-3
5.602198500e0,4.310265649e-3,-2.405885141e-3,-5.549693014e-4,4.967359883e-3
5.612231500e0,2.599184634e-3,-2.225589007e-3,8.445559070e-5,3.422884739e-3
5.622264500e0,-4.361617321e-4,4.152104724e-3,-4.977709614e-5,4.175247113e-3
5.632297500e0,-4.653543700e-3,8.631008677e-4,1.345985569e-3,4.920578139e-3
5.642330500e0,-4.596008454e-3,2.751911525e-4,3.839659039e-4,4.620222256e-3
5.652362500e0,1.537395583e-4,3.809186164e-4,6.606683601e-4,7.779572778e-4
5.662395500e0,9.818470571e-4,-2.569403034e-3,-7.539074868e-4,2.852057519e-3
5.672428500e0,1.279854681e-3,-3.708969802e-3,-3.213869175e-3,5.071828080e-3
5.682461500e0,4.191361368e-3,-2.944871085e-3,-1.165360212e-3,5.253364659e-3
5.692494500e0,2.922365442e-3,-2.782151802e-3,1.500996645e-3,4.305064384e-3
5.702527500e0,-2.789133287e-4,8.840893861e-4,1.091106911e-3,1.431754511e-3
5.712560500e0,-1.517549623e-3,1.011654967e-3,4.753840622e-4,1.884779201e-3
5.722593500e0,1.390466350e-3,1.467952505e-3,-1.804476604e-3,2.710058494e-3
5.732625500e0,2.638956299e-3,2.884385176e-4,1.183590037e-3,2.906574015e-3
5.742658500e0,-2.474167617e-3,9.590748232e-4,6.855940446e-4,2.740687707e-3
5.752691500e0,2.454523346e-4,1.051486470e-3,3.628188279e-4,1.139082151e-3
5.762724500e0,1.013297122e-3,-8.990956703e-4,9.918936994e-4,1.678986954e-3
5.772757500e0,2.795962209e-4,-1.531063812e-3,6.773743080e-4,1.697399893e-3
5.782790500e0,-2.869135351e-4,3.387877718e-3,-2.624448622e-3,4.295086189e-3
5.792823500e0,-3.838526027e-4,-1.406877534e-3,-3.852630034e-4,1.508335108e-3
5.802855500e0,-3.945608041e-4,3.144068178e-4,8.344284724e-4,9.750901245e-4
5.812888500e0,-4.693956289e-4,-2.411287278e-4,1.588369370e-3,1.673736113e-3
5.822921500e0,1.268416294e-3,-4.621890839e-4,-4.823475610e-4,1.433582161e-3
5.832954500e0,8.843884571e-4,1.471422147e-4,-6.597142201e-4,1.113111237e-3
5.842987500e0,6.129006506e-4,-6.263413234e-4,8.709975518e-4,1.235551454e-3
5.853020500e0,9.212947334e-4,1.853594091e-3,4.957581405e-4,2.128466860e-3
5.863053500e0,-2.721432829e-3,1.565256156e-3,-1.002838835e-3,3.295741071e-3
5.873085500e0,-1.396510284e-3,3.061138559e-4,-2.755997935e-3,3.104749795e-3
5.883118500e0,1.039229566e-3,8.034459315e-4,7.704765303e-4,1.522878045e-3
5.893151500e0,2.862163354e-3,-1.966507873e-3,-2.873311751e-4,3.484493002e-3
5.903184500e0,1.404781826e-3,1.657805406e-3,-3.119900357e-4,2.195237692e-3
5.913217500e0,3.592247085e-4,-4.262314178e-5,1.950365258e-3,1.983628938e-3
5.923250000e0,1.188843162e-4,-2.729972126e-3,-1.536766300e-3,3.135048955e-3
5.933283000e0,6.082738400e-5,1.855991315e-3,-3.634137101e-5,1.857343379e-3
5.943316000e0,-2.314089361e-4,2.214792185e-4,1.654790482e-3,1.685507246e-3
5.953348000e0,3.065584460e-3,3.903235774e-4,1.293318346e-4,3.093038522e-3
5.963381000e0,-4.994337796e-4,1.266403589e-3,1.437138068e-3,1.979539840e-3
5.973414000e0,2.110975911e-4,1.542573329e-3,-1.687548822e-3,2.296065264e-3
5.983447000e0,4.588926386e-4,1.619383693e-4,5.100767594e-4,7.049714814e-4
5.993480000e0,2.363585401e-3,5.587493069e-4,1.502370462e-3,2.855845539e-3
6.003513000e0,-9.116356960e-4,9.635193273e-4,7.751123048e-4,1.536309937e-3
6.013546000e0,7.749442011e-4,-1.719349297e-3,-2.358236816e-4,1.900608673e-3
6.023578000e0,-3.045217367e-3,2.029363066e-3,-1.724888803e-3,4.045603126e-3
6.033611000e0,-1.945864409e-3,1.959854271e-3,-5.080907140e-4,2.808126286e-3
6.043644000e0,-9.972786065e-4,1.324457116e-4,-6.470584776e-4,1.196156829e-3
6.053677000e0,-1.549208246e-4,-1.104346011e-4,1.236062613e-3,1.250618666e-3
6.063710000e0,-6.927592331e-4,1.508712769e-3,4.454157315e-4,1.718873104e-3
6.073743000e0,-7.409624523e-4,2.253355924e-4,-1.709081698e-3,1.876369296e-3
6.083776000e0,2.128517954e-3,-7.740271976e-4,-4.797265865e-4,2.315133771e-3
6.093809000e0,1.146344235e-3,1.131997211e-3,1.511762384e-4,1.618139996e-3
6.103841000e0,-2.428051375e-4,-5.567802582e-4,4.147957079e-4,7.355365865e-4
6.113874000e0,-1.920862938e-3,-1.132289413e-3,-3.497980069e-4,2.257022904e-3
6.123907000e0,1.121100970e-3,-7.229885086e-4,-3.301608376e-4,1.374258326e-3
6.133940000e0,-1.462165266e-3,2.990789479e-3,1.559351920e-3,3.676183807e-3
6.143973000e0,-6.224362296e-4,3.598902840e-4,1.693572383e-3,1.839873717e-3
6.154006000e0,-1.742295455e-3,-1.894209068e-3,-3.512026742e-4,2.597492015e-3
6.164039000e0,1.012448221e-3,-1.655722037e-3,1.544706523e-3,2.480440507e-3
6.174071000e0,3.634358873e-4,1.128832810e-4,6.054097321e-4,7.150868639e-4
6.184104000e0,-1.062794181e-4,1.199597027e-3,-1.685064519e-3,2.071176182e-3
6.194137000e0,-3.006728133e-3,1.100793714e-3,-1.816358650e-3,3.681211704e-3
6.204170000e0,3.756741062e-4,-4.720746074e-4,-6.424945313e-4,8.813538970e-4
6.214203000e0,-9.274106123e-4,1.637148671e-3,8.547345642e-4,2.066619798e-3
6.224236000e0,-8.062689449e-4,7.864364889e-4,2.812696621e-4,1.160889566e-3
6.234269000e0,4.233534262e-2,6.570928693e-1,-1.015641317e-1,6.662421429e-1
6.244301000e0,3.067456782e-1,1.091831446e0,-2.063562155e0,2.354671439e0
6.254334000e0,5.549789071e-1,-9.881454110e-1,-3.737843037e0,3.905880631e0
6.264367000e0,5.184050798e-1,-3.661175489e0,-4.678026676e0,5.962959280e0
6.274400000e0,-7.002430558e-1,-4.788472176e0,-4.272498608e0,6.455544165e0
6.284433000e0,-1.434128165e0,9.922211170e-1,-2.994857311e0,3.465601918e0
6.294466000e0,-1.557873249e0,1.166704595e-1,-6.486672759e-1,1.691552627e0
6.304499000e0,-1.813529253e0,-8.311238289e-1,1.173228025e0,2.314329097e0
6.314532000e0,-1.807374358e0,-1.422436118e0,1.489203334e0,2.740009699e0
6.324564000e0,-2.483529411e-2,-3.171592355e-1,1.187998891e0,1.229856958e0
6.334597000e0,5.998424292e-1,-6.571498513e-1,8.424572349e-1,1.225312637e0
6.344630000e0,3.426735997e-1,-9.702978730e-1,-3.717379272e-1,1.094117107e0
6.354663000e0,-3.166643530e-2,-1.229867697e0,-8.223404884e-1,1.479804444e0
6.364696000e0,-5.042042732e-1,-1.587814093e0,-6.817344427e-1,1.800038164e0
6.374729000e0,-1.003197193e0,-1.950265288e0,-4.202913940e-1,2.233066089e0
6.384762000e0,-1.538103938e0,-2.324869156e0,-1.180176586e-1,2.790109045e0
6.394794000e0,-2.126041889e0,-2.678292274e0,2.911142111e-1,3.431916535e0
6.404827000e0,-2.715795994e0,-3.016141891e0,5.646285415e-1,4.097739033e0
6.414860000e0,-3.209055424e0,-3.137647390e0,3.506512642e-1,4.501757898e0
6.424893000e0,-3.563081980e0,-3.580289841e0,-7.327269763e-2,5.051672735e0
6.434926000e0,-3.774652958e0,-3.338031292e0,-3.149260581e-1,5.048726204e0
6.444959000e0,-3.962085485e0,-2.915092945e0,-6.180011034e-1,4.957601601e0
6.454992000e0,-4.127651691e0,-2.551287889e0,-7.876955867e-1,4.915998649e0
6.465024000e0,-4.297915459e0,-2.208141565e0,-8.517493010e-1,4.906469539e0
6.475057000e0,-4.434342384e0,-1.976205230e0,-7.512727380e-1,4.912554348e0
6.485090000e0,-4.560489178e0,-2.138105392e0,-5.961408019e-1,5.071975953e0
6.495123000e0,-4.639906883e0,-2.375764847e0,-3.552557230e-1,5.224863742e0
6.505156000e0,-4.712414265e0,-2.602151632e0,-8.757987618e-2,5.383837995e0
6.515189000e0,-4.710064411e0,-2.885332584e0,1.262993813e-1,5.525016055e0
6.525222000e0,-4.727756023e0,-3.286974192e0,2.681355476e-1,5.764353652e0
6.535255000e0,-4.702961445e0,-2.810492277e0,4.419898987e-1,5.496550579e0
6.545287000e0,-4.612325191e0,-2.452999592e0,5.035323501e-1,5.248265951e0
6.555320000e0,-4.459804535e0,-2.304378033e0,5.669246316e-1,5.051872736e0
6.565353000e0,-4.286737442e0,-2.500072479e0,7.529476881e-1,5.019303788e0
6.575386000e0,-4.113366604e0,-2.924722910e0,1.148442626e0,5.176167442e0
6.585419000e0,-3.882162571e0,-3.126973152e0,1.429030061e0,5.185679728e0
6.595452000e0,-3.590991020e0,-3.130957603e0,1.416529775e0,4.970379123e0
6.605485000e0,-3.256320477e0,-3.068395138e0,1.298428059e0,4.658818218e0
6.615517000e0,-2.889780760e0,-2.805480719e0,1.196217775e0,4.201486864e0
6.625550000e0,-2.523735523e0,-2.446543932e0,1.157272696e0,3.700553782e0
6.635583000e0,-2.202858210e0,-2.112567186e0,1.154379368e0,3.263145129e0
6.645616000e0,-1.945907474e0,-1.954000831e0,1.084737539e0,2.963331009e0
6.655649000e0,-1.761371970e0,-2.011310577e0,9.624937177e-1,2.841512909e0
6.665682000e0,-1.617909551e0,-2.096188784e0,8.302921057e-1,2.775071839e0
6.675715000e0,-1.496714592e0,-2.114898205e0,7.490611672e-1,2.697043125e0
6.685747000e0,-1.395086288e0,-2.130511284e0,7.953795791e-1,2.667952915e0
6.695780000e0,-1.329698801e0,-2.172163486e0,9.064797759e-1,2.703349533e0
6.705813000e0,-1.321574926e0,-2.281968117e0,1.014598489e0,2.825482059e0
6.715846000e0,-1.370378613e0,-2.341568232e0,1.033440948e0,2.903253265e0
6.725879000e0,-1.482374787e0,-2.469094753e0,1.087983966e0,3.078566715e0
6.735912000e0,-1.645604968e0,-2.655906677e0,1.186586738e0,3.342131666e0
6.745945000e0,-1.820130825e0,-2.823886156e0,1.282195926e0,3.596002730e0
6.755978000e0,-2.005854368e0,-2.959412575e0,1.366511703e0,3.827391901e0
6.766010000e0,-2.206014872e0,-3.100523710e0,1.384573460e0,4.049295316e0
6.776043000e0,-2.416247606e0,-3.265803337e0,1.307025313e0,4.267556573e0
6.786076000e0,-2.640548706e0,-3.374779463e0,1.229765177e0,4.458021566e0
6.796109000e0,-2.854862690e0,-3.421664476e0,1.127261758e0,4.596601771e0
6.806142000e0,-3.025678158e0,-3.476800442e0,9.230850935e-1,4.700527174e0
6.816175000e0,-3.137668133e0,-3.453079700e0,7.101514935e-1,4.719431732e0
6.826208000e0,-3.204936266e0,-3.184851885e0,6.596720815e-1,4.566187168e0
6.836240000e0,-3.231791735e0,-2.851727962e0,6.750696898e-1,4.362631004e0
6.846273000e0,-3.258713245e0,-2.601055622e0,7.715275884e-1,4.240277961e0
6.856306000e0,-3.310725451e0,-2.439105272e0,9.249845147e-1,4.214941742e0
6.866339000e0,-3.386802912e0,-2.379787922e0,1.046436906e0,4.269526287e0
6.876372000e0,-3.470522642e0,-2.414167881e0,9.992691875e-1,4.344107834e0
6.886405000e0,-3.572683811e0,-2.315649986e0,1.055784225e0,4.386454696e0
6.896438000e0,-3.695538282e0,-2.148093462e0,1.164818048e0,4.430362266e0
6.906470000e0,-3.823482513e0,-2.064009190e0,1.100013852e0,4.482095820e0
6.916503000e0,-3.948022604e0,-1.982430935e0,8.088219166e-1,4.491225644e0
6.926540750e0,-4.064889431e0,-1.893227577e0,4.940584004e-1,4.511289222e0
6.936573750e0,-4.171749592e0,-1.834928751e0,1.874465495e-1,4.561314984e0
6.946606750e0,-4.255168438e0,-1.904323816e0,-1.211555898e-1,4.663430745e0
6.956639750e0,-4.299139977e0,-1.915817976e0,-3.552336097e-1,4.720079869e0
6.966672750e0,-4.287881851e0,-1.976361871e0,-4.905086756e-1,4.746844823e0
6.976705750e0,-4.208729267e0,-1.997544408e0,-5.166652203e-1,4.687273051e0
6.986737750e0,-4.056186199e0,-1.941314101e0,-5.430423617e-1,4.529485835e0
6.996770750e0,-3.837402821e0,-1.939432621e0,-6.428291202e-1,4.347446213e0
7.006803750e0,-3.562192917e0,-1.932314992e0,-8.167694807e-1,4.134026123e0
7.016836750e0,-3.246796370e0,-1.929720283e0,-1.076195478e0,3.927302349e0
7.026869750e0,-2.887850761e0,-1.883705378e0,-1.257211328e0,3.669960258e0
7.036902750e0,-2.518271446e0,-1.834990621e0,-1.269522071e0,3.364605169e0
7.046935750e0,-2.139633179e0,-1.819690943e0,-1.235031605e0,3.068323375e0
7.056967750e0,-1.785564065e0,-1.858962774e0,-1.069764853e0,2.790766645e0
7.067000750e0,-1.461450458e0,-1.962462664e0,-8.413854241e-1,2.587474943e0
7.077033750e0,-1.158207774e0,-2.017565012e0,-6.513960361e-1,2.415849876e0
7.087066750e0,-8.815870285e-1,-1.961504579e0,-5.457761884e-1,2.218685996e0
7.097099750e0,-6.007196903e-1,-1.850400686e0,-6.422121525e-1,2.048727238e0
7.107132750e0,-3.042643964e-1,-1.686616182e0,-8.436096907e-1,1.910216815e0
7.117165750e0,1.439746935e-2,-1.434158802e0,-1.204990506e0,1.873238073e0
7.127197750e0,3.388567567e-1,-1.295371890e0,-1.559192896e0,2.055211600e0
7.137230750e0,6.573607326e-1,-1.170978785e0,-1.574677348e0,2.069522456e0
7.147263750e0,9.794326425e-1,-1.086730361e0,-1.484445214e0,2.084190196e0
7.157296750e0,1.288712978e0,-1.035342813e0,-1.391491055e0,2.160778387e0
7.167329750e0,1.562401652e0,-9.927999377e-1,-1.321886182e0,2.274672222e0
7.177362750e0,1.784515738e0,-9.881458282e-1,-1.327062845e0,2.433520987e0
7.187395750e0,1.980835319e0,-1.003784418e0,-1.410007000e0,2.630477420e0
7.197428750e0,2.187352657e0,-9.641829729e-1,-1.519802690e0,2.832659646e0
7.207460750e0,2.442223787e0,-8.039441109e-1,-1.625508070e0,3.041884226e0
7.217493750e0,2.747617722e0,-5.382881761e-1,-1.796761274e0,3.326786495e0
7.227526750e0,3.092543125e0,-2.275831848e-1,-1.891892314e0,3.632474861e0
7.237559750e0,3.035826206e0,1.234046184e-2,-2.077755690e0,3.678785363e0
7.247592750e0,2.635360003e0,-1.089451611e-1,-1.784375906e0,3.184491916e0
7.257625750e0,2.149133921e0,-2.560645640e-1,-1.272589564e0,2.510742892e0
7.267658750e0,1.824517369e0,-3.877215981e-1,-1.011546135e0,2.121890019e0
7.277690750e0,1.663464546e0,-5.563297868e-1,-8.946906328e-1,1.969032366e0
7.287723750e0,1.581865907e0,-7.224845886e-1,-7.760156393e-1,1.904332954e0
7.297756750e0,1.372346997e0,-9.097013474e-1,-6.650744677e-1,1.775729954e0
7.307789750e0,1.027935624e0,-1.052076340e0,-5.011976957e-1,1.553935456e0
7.317822750e0,5.713694096e-1,-1.129192472e0,-4.382829070e-1,1.339264928e0
7.327855750e0,-1.263333485e-2,-1.285462379e0,-5.387521982e-1,1.393853314e0
7.337888750e0,-6.023342013e-1,-1.312205315e0,-7.944513559e-1,1.647981260e0
7.347920750e0,-1.136957526e0,-1.362319708e0,-9.723917246e-1,2.023396419e0
7.357953750e0,-1.525932789e0,-1.352769136e0,-1.045314431e0,2.291536051e0
7.367986750e0,-1.753307104e0,-1.242923141e0,-1.125254035e0,2.425930827e0
7.378019750e0,-1.885498405e0,-1.034030557e0,-1.187489986e0,2.456512954e0
7.388052750e0,-1.969604373e0,-7.918973565e-1,-1.265803814e0,2.471578869e0
7.398085750e0,-2.060577393e0,-5.219942331e-1,-1.482503414e0,2.591577424e0
7.408118750e0,-2.281409979e0,-2.609696388e-1,-1.932014704e0,3.000936097e0
7.418150750e0,-2.750911474e0,-5.842132494e-2,-1.958231449e0,3.377217405e0
7.428183750e0,-2.834369659e0,-2.149432898e-1,-1.190290213e0,3.081662339e0
7.438216750e0,-2.360555410e0,-2.583304346e-1,-5.475318432e-1,2.436954570e0
7.448249750e0,-1.653990388e0,-1.335026622e-1,-2.089158893e-1,1.672469137e0
7.458282750e0,-9.591524601e-1,3.425632119e-1,-2.155676633e-1,1.041053511e0
7.468315750e0,-4.329788387e-1,5.716363788e-1,-2.172113508e-1,7.492793839e-1
7.478348750e0,-1.345577836e-1,5.171284080e-1,-1.556148380e-1,5.565461034e-1
7.488381750e0,8.086243272e-2,4.483833611e-1,-3.437748551e-1,5.707604774e-1
7.498413750e0,2.529391348e-1,3.792056143e-1,-6.122891307e-1,7.633302584e-1
7.508446750e0,3.378981948e-1,9.938395768e-2,-6.885454655e-1,7.733997796e-1
7.518479750e0,3.634219468e-1,-3.945434391e-1,-9.050735235e-1,1.052092258e0
7.528512750e0,4.137544334e-1,-9.767367244e-1,-9.760678411e-1,1.441497759e0
7.538545750e0,5.189154744e-1,-1.451861143e0,-9.936588407e-1,1.834266049e0
7.548578750e0,6.224024892e-1,-1.787946701e0,-9.469043016e-1,2.116781997e0
7.558611750e0,7.650501728e-1,-1.913838029e0,-8.732492328e-1,2.238446334e0
7.568643750e0,9.598051906e-1,-1.819441080e0,-7.779654860e-1,2.199277642e0
7.578676750e0,1.163832307e0,-1.609614849e0,-6.676608324e-1,2.095503898e0
7.588709750e0,1.300918341e0,-1.347984195e0,-5.643672347e-1,1.956517389e0
7.598742750e0,1.329953194e0,-1.087120175e0,-4.606000781e-1,1.778414520e0
7.608775750e0,1.273805737e0,-8.311315775e-1,-3.233773708e-1,1.554970636e0
7.618808750e0,1.166468620e0,-6.023324728e-1,-1.633701324e-1,1.322929798e0
7.628841750e0,1.011250138e0,-3.996973634e-1,-1.830077916e-2,1.087529192e0
7.638874750e0,8.395806551e-1,-2.302124351e-1,1.178916767e-1,8.785168690e-1
7.648906750e0,6.306608915e-1,-8.315504342e-2,1.975218058e-1,6.660801642e-1
7.658939750e0,4.141144753e-1,3.641876206e-2,1.962429583e-1,4.597047134e-1
7.668972750e0,2.227889895e-1,1.045378968e-1,1.234009713e-1,2.753014810e-1
7.679005750e0,1.019448563e-1,1.111513227e-1,3.247852251e-2,1.542796963e-1
7.689038750e0,8.431100845e-2,6.101690233e-2,-1.755266935e-1,2.040613355e-1
7.699071750e0,2.242231071e-1,-3.340387344e-2,-7.364280820e-1,7.705310769e-1
7.709104750e0,3.806100488e-1,-2.067760825e-1,-1.141099811e0,1.220544606e0
7.719136750e0,3.634976447e-1,-5.900947452e-1,-1.545731783e0,1.693997961e0
7.729169750e0,4.447860122e-1,-7.583159208e-1,-1.738192439e0,1.947868216e0
7.739202750e0,5.624465346e-1,-7.188683748e-1,-1.446711063e0,1.710581990e0
7.749235750e0,5.648528337e-1,-8.082672954e-1,-1.146804452e0,1.512453370e0
7.759268750e0,5.354999900e-1,-7.997206450e-1,-7.494390011e-1,1.219824645e0
7.769301750e0,4.809832573e-1,-7.639477253e-1,-3.675017953e-1,9.746889711e-1
7.779334750e0,4.604921043e-1,-7.419338226e-1,-7.020487636e-2,8.760408095e-1
7.789366750e0,4.181869924e-1,-7.175189853e-1,9.864033014e-2,8.363275492e-1
7.799399750e0,3.568661213e-1,-6.989767551e-1,1.495344043e-1,7.989258231e-1
7.809432750e0,3.151718974e-1,-6.755787730e-1,1.365348697e-1,7.578797887e-1
7.819465750e0,2.914207578e-1,-6.255432963e-1,1.079548821e-1,6.984874589e-1
7.829498750e0,2.601427138e-1,-5.574996471e-1,6.446208805e-2,6.185753381e-1
7.839531750e0,2.136974633e-1,-4.877613187e-1,4.114622716e-4,5.325203086e-1
7.849564750e0,1.056227684e-1,-4.391371310e-1,-7.155861706e-2,4.572944617e-1
7.859596750e0,-4.297549650e-2,-4.058319032e-1,-1.572226584e-1,4.373389890e-1
7.869629750e0,-1.739709675e-1,-3.809719384e-1,-2.241598964e-1,4.750296565e-1
7.879662750e0,-2.740493715e-1,-3.694311082e-1,-2.419815063e-1,5.197474879e-1
7.889695750e0,-3.102266192e-1,-3.833046556e-1,-1.843850166e-1,5.264606810e-1
7.899728750e0,-2.683603764e-1,-4.063609540e-1,-8.754421026e-2,4.947832913e-1
7.909761750e0,-1.602060944e-1,-3.965252936e-1,-2.664842177e-3,4.276744118e-1
7.919794750e0,-4.274231568e-2,-3.745925725e-1,2.951786108e-2,3.781769493e-1
7.929823000e0,2.425678447e-2,-3.496860266e-1,-9.155785665e-3,3.506458857e-1
7.939855000e0,1.172155235e-2,-3.317232728e-1,-8.007603139e-2,3.414526253e-1
7.949888000e0,-2.926717326e-2,-3.044259846e-1,-1.126338914e-1,3.259112472e-1
7.959921000e0,-7.819982618e-2,-2.745256126e-1,-1.086130515e-1,3.054117217e-1
7.969954000e0,-1.377308667e-1,-2.401106656e-1,-8.066536486e-2,2.883224314e-1
7.979987000e0,-1.772511154e-1,-2.113740891e-1,-4.522908106e-2,2.795400387e-1
7.990020000e0,-1.759801954e-1,-1.800559312e-1,-2.035725117e-2,2.525937157e-1
8.000053000e0,-1.572613716e-1,-1.431876570e-1,-1.148945652e-2,2.129926096e-1
8.010085000e0,-1.686644107e-1,-1.215878427e-1,-2.458518604e-3,2.079358825e-1
8.020118000e0,-1.621487141e-1,-9.786866605e-2,3.152235225e-2,1.920003645e-1
8.030151000e0,-1.730184406e-1,-9.067116678e-2,6.500978768e-2,2.058711096e-1
8.040184000e0,-4.802809358e-1,-5.703198537e-2,1.078648418e-1,4.955373333e-1
8.050217000e0,-5.657809377e-1,-1.959417202e-2,1.291617006e-1,5.806675003e-1
8.060250000e0,-3.890215755e-1,-1.508490928e-2,8.548959345e-2,3.985897781e-1
8.070283000e0,-1.407217085e-1,-3.894185647e-2,-1.722264104e-2,1.470227425e-1
8.080315000e0,1.372438669e-1,-1.095435917e-1,-1.208342537e-1,2.131586132e-1
8.090348000e0,3.817725778e-1,-1.925671399e-1,-1.284822673e-1,4.464751925e-1
8.100381000e0,4.687181413e-1,-2.750670612e-1,-7.561265677e-2,5.487037981e-1
8.110414000e0,4.164811671e-1,-3.345533907e-1,-1.144626271e-2,5.343346804e-1